n_samples,gyr_x,gyr_y,gyr_z,acc_x,acc_y,acc_z
0,-0.244140625,0.1220703125,-0.54931640625,-0.0283203125,-0.9306640625,0.47998046875
1,-0.42724609375,0.06103515625,-0.42724609375,-0.03173828125,-0.93017578125,0.47705078125
2,-0.732421875,0.06103515625,-0.48828125,-0.02734375,-0.93115234375,0.4794921875
3,-0.9765625,0.1220703125,-0.42724609375,-0.029296875,-0.9296875,0.47802734375
4,-0.91552734375,0.1220703125,-0.3662109375,-0.02978515625,-0.93017578125,0.47705078125
5,-1.03759765625,0.1220703125,-0.48828125,-0.02783203125,-0.9287109375,0.47607421875
6,-1.03759765625,0.1220703125,-0.54931640625,-0.02978515625,-0.931640625,0.474609375
7,-0.91552734375,0.1220703125,-0.42724609375,-0.02734375,-0.93115234375,0.478515625
8,-0.8544921875,0.18310546875,-0.42724609375,-0.025390625,-0.9296875,0.47705078125
9,-0.67138671875,0.18310546875,-0.3662109375,-0.02783203125,-0.93115234375,0.47705078125
10,-0.48828125,0.18310546875,-0.42724609375,-0.0263671875,-0.93115234375,0.47607421875
11,-0.3662109375,0.244140625,-0.42724609375,-0.02734375,-0.9296875,0.4755859375
12,-0.1220703125,0.3662109375,-0.3662109375,-0.0283203125,-0.931640625,0.4755859375
13,0.0,0.244140625,-0.42724609375,-0.0302734375,-0.93505859375,0.474609375
14,0.244140625,0.18310546875,-0.54931640625,-0.02978515625,-0.93310546875,0.4755859375
15,0.30517578125,0.1220703125,-0.6103515625,-0.02783203125,-0.92919921875,0.47705078125
16,0.30517578125,0.1220703125,-0.6103515625,-0.02978515625,-0.93115234375,0.47900390625
17,0.3662109375,0.18310546875,-0.67138671875,-0.02880859375,-0.9306640625,0.478515625
18,0.48828125,0.18310546875,-0.67138671875,-0.02783203125,-0.927734375,0.47607421875
19,0.3662109375,0.1220703125,-0.732421875,-0.029296875,-0.9287109375,0.47998046875
20,0.244140625,0.18310546875,-0.67138671875,-0.02734375,-0.92919921875,0.47705078125
21,0.244140625,0.244140625,-0.67138671875,-0.0283203125,-0.9287109375,0.47705078125
22,0.1220703125,0.30517578125,-0.54931640625,-0.02783203125,-0.9306640625,0.47802734375
23,0.06103515625,0.244140625,-0.54931640625,-0.02734375,-0.93310546875,0.47705078125
24,0.18310546875,0.244140625,-0.48828125,-0.02685546875,-0.93115234375,0.4775390625
25,0.244140625,0.30517578125,-0.6103515625,-0.029296875,-0.93115234375,0.4794921875
26,0.30517578125,0.18310546875,-0.54931640625,-0.0283203125,-0.93212890625,0.4794921875
27,0.30517578125,0.30517578125,-0.6103515625,-0.02685546875,-0.9306640625,0.47705078125
28,0.1220703125,0.244140625,-0.48828125,-0.0283203125,-0.9306640625,0.4775390625
29,-0.06103515625,0.18310546875,-0.54931640625,-0.0302734375,-0.931640625,0.4755859375
30,-0.1220703125,0.1220703125,-0.67138671875,-0.0302734375,-0.93212890625,0.474609375
31,0.0,0.06103515625,-0.6103515625,-0.02734375,-0.93212890625,0.474609375
32,-0.1220703125,-0.06103515625,-0.67138671875,-0.02734375,-0.92822265625,0.47998046875
33,-0.1220703125,-0.06103515625,-0.67138671875,-0.02587890625,-0.93115234375,0.4775390625
34,-0.1220703125,-0.06103515625,-0.6103515625,-0.025390625,-0.92919921875,0.4755859375
35,-0.1220703125,0.0,-0.6103515625,-0.02783203125,-0.92919921875,0.48095703125
36,-0.1220703125,-0.06103515625,-0.67138671875,-0.02783203125,-0.9326171875,0.47802734375
37,-0.1220703125,-0.06103515625,-0.67138671875,-0.02783203125,-0.93212890625,0.4765625
38,-0.06103515625,-0.06103515625,-0.67138671875,-0.029296875,-0.9306640625,0.47705078125
39,0.06103515625,-0.06103515625,-0.67138671875,-0.02880859375,-0.92919921875,0.47900390625
40,-0.1220703125,-0.06103515625,-0.54931640625,-0.02685546875,-0.92822265625,0.47802734375
41,-0.18310546875,0.06103515625,-0.6103515625,-0.02685546875,-0.92724609375,0.4794921875
42,-0.1220703125,0.18310546875,-0.6103515625,-0.0263671875,-0.9287109375,0.478515625
43,-0.18310546875,0.244140625,-0.42724609375,-0.02734375,-0.9287109375,0.4794921875
44,-0.18310546875,0.30517578125,-0.42724609375,-0.02783203125,-0.92822265625,0.478515625
45,-0.18310546875,0.30517578125,-0.48828125,-0.02783203125,-0.93017578125,0.4775390625
46,-0.18310546875,0.30517578125,-0.42724609375,-0.02685546875,-0.9306640625,0.4794921875
47,-0.18310546875,0.30517578125,-0.42724609375,-0.02978515625,-0.9296875,0.48193359375
48,-0.18310546875,0.3662109375,-0.3662109375,-0.0263671875,-0.93017578125,0.47900390625
49,-0.3662109375,0.3662109375,-0.42724609375,-0.0283203125,-0.93115234375,0.47607421875
50,-0.30517578125,0.42724609375,-0.48828125,-0.02734375,-0.9296875,0.47705078125
51,-0.30517578125,0.3662109375,-0.42724609375,-0.0263671875,-0.9306640625,0.4794921875
52,-0.244140625,0.3662109375,-0.3662109375,-0.02587890625,-0.9306640625,0.4765625
53,-0.30517578125,0.3662109375,-0.3662109375,-0.025390625,-0.93212890625,0.4755859375
54,-0.244140625,0.42724609375,-0.42724609375,-0.0263671875,-0.9326171875,0.478515625
55,-0.244140625,0.42724609375,-0.3662109375,-0.02783203125,-0.9296875,0.4794921875
56,-0.244140625,0.3662109375,-0.42724609375,-0.0283203125,-0.93115234375,0.47607421875
57,-0.1220703125,0.30517578125,-0.42724609375,-0.02783203125,-0.931640625,0.47607421875
58,-0.1220703125,0.18310546875,-0.42724609375,-0.02783203125,-0.93310546875,0.4775390625
59,0.0,0.18310546875,-0.42724609375,-0.02734375,-0.92919921875,0.47607421875
60,0.1220703125,0.30517578125,-0.42724609375,-0.02587890625,-0.9287109375,0.478515625
61,0.06103515625,0.3662109375,-0.42724609375,-0.02685546875,-0.93017578125,0.4794921875
62,0.0,0.48828125,-0.3662109375,-0.02734375,-0.9296875,0.48095703125
63,0.06103515625,0.3662109375,-0.30517578125,-0.02783203125,-0.93212890625,0.47900390625
64,0.06103515625,0.42724609375,-0.3662109375,-0.0283203125,-0.9296875,0.4765625
65,0.1220703125,0.3662109375,-0.3662109375,-0.02685546875,-0.9296875,0.478515625
66,-0.18310546875,0.3662109375,-0.3662109375,-0.0283203125,-0.92919921875,0.47509765625
67,-0.18310546875,0.3662109375,-0.42724609375,-0.029296875,-0.9296875,0.4765625
68,-0.06103515625,0.48828125,-0.3662109375,-0.02734375,-0.9296875,0.47998046875
69,-0.06103515625,0.54931640625,-0.30517578125,-0.0283203125,-0.9287109375,0.478515625
70,0.0,0.48828125,-0.30517578125,-0.0263671875,-0.9326171875,0.47705078125
71,0.0,0.48828125,-0.3662109375,-0.02734375,-0.9306640625,0.47705078125
72,0.0,0.48828125,-0.30517578125,-0.02783203125,-0.927734375,0.47998046875
73,-0.06103515625,0.48828125,-0.3662109375,-0.02587890625,-0.927734375,0.47998046875
74,-0.06103515625,0.54931640625,-0.3662109375,-0.02587890625,-0.93017578125,0.48095703125
75,0.0,0.6103515625,-0.30517578125,-0.02783203125,-0.9287109375,0.47802734375
76,-0.1220703125,0.6103515625,-0.3662109375,-0.02734375,-0.92822265625,0.47900390625
77,-0.1220703125,0.54931640625,-0.48828125,-0.029296875,-0.9306640625,0.4755859375
78,-0.06103515625,0.48828125,-0.42724609375,-0.02978515625,-0.93212890625,0.478515625
79,0.1220703125,0.54931640625,-0.42724609375,-0.0283203125,-0.93115234375,0.4794921875
80,0.1220703125,0.48828125,-0.3662109375,-0.02783203125,-0.9296875,0.47705078125
81,0.244140625,0.48828125,-0.3662109375,-0.02783203125,-0.9306640625,0.47705078125
82,0.30517578125,0.48828125,-0.42724609375,-0.029296875,-0.93115234375,0.4765625
83,0.1220703125,0.3662109375,-0.42724609375,-0.02978515625,-0.92822265625,0.4794921875
84,0.06103515625,0.42724609375,-0.42724609375,-0.02685546875,-0.92822265625,0.48095703125
85,0.0,0.48828125,-0.42724609375,-0.02734375,-0.9267578125,0.47998046875
86,-0.06103515625,0.54931640625,-0.3662109375,-0.0283203125,-0.92724609375,0.4794921875
87,-0.06103515625,0.732421875,-0.30517578125,-0.02734375,-0.9306640625,0.47900390625
88,-0.18310546875,0.67138671875,-0.30517578125,-0.02880859375,-0.92919921875,0.478515625
89,-0.06103515625,0.732421875,-0.3662109375,-0.0302734375,-0.92919921875,0.47900390625
90,-0.18310546875,0.732421875,-0.3662109375,-0.029296875,-0.93115234375,0.4775390625
91,-0.1220703125,0.54931640625,-0.3662109375,-0.02880859375,-0.931640625,0.47802734375
92,-0.06103515625,0.48828125,-0.3662109375,-0.02685546875,-0.9306640625,0.4775390625
93,0.0,0.42724609375,-0.3662109375,-0.0263671875,-0.9267578125,0.47900390625
94,-0.06103515625,0.42724609375,-0.30517578125,-0.02880859375,-0.93017578125,0.478515625
95,-0.1220703125,0.54931640625,-0.42724609375,-0.02880859375,-0.9287109375,0.47998046875
96,-0.1220703125,0.48828125,-0.3662109375,-0.0283203125,-0.9287109375,0.47900390625
97,-0.18310546875,0.6103515625,-0.3662109375,-0.02734375,-0.9287109375,0.4794921875
98,-0.18310546875,0.6103515625,-0.3662109375,-0.02783203125,-0.9306640625,0.48095703125
99,-0.244140625,0.54931640625,-0.30517578125,-0.02783203125,-0.9296875,0.4775390625
100,-0.244140625,0.48828125,-0.30517578125,-0.0302734375,-0.93115234375,0.478515625
101,-0.3662109375,0.30517578125,-0.3662109375,-0.0302734375,-0.9326171875,0.47607421875
102,-0.244140625,0.3662109375,-0.48828125,-0.02783203125,-0.931640625,0.478515625
103,-0.18310546875,0.30517578125,-0.42724609375,-0.02978515625,-0.92822265625,0.48046875
104,-0.30517578125,0.30517578125,-0.3662109375,-0.02783203125,-0.9306640625,0.4765625
105,-0.30517578125,0.30517578125,-0.30517578125,-0.02783203125,-0.93212890625,0.4775390625
106,-0.244140625,0.30517578125,-0.42724609375,-0.02734375,-0.93115234375,0.4775390625
107,-0.1220703125,0.3662109375,-0.3662109375,-0.02880859375,-0.9287109375,0.478515625
108,0.0,0.3662109375,-0.30517578125,-0.02734375,-0.92919921875,0.47998046875
109,0.0,0.42724609375,-0.244140625,-0.02734375,-0.9306640625,0.48046875
110,0.0,0.3662109375,-0.3662109375,-0.029296875,-0.927734375,0.47900390625
111,0.06103515625,0.48828125,-0.3662109375,-0.02880859375,-0.927734375,0.4775390625
112,-0.06103515625,0.42724609375,-0.42724609375,-0.029296875,-0.9296875,0.47900390625
113,-0.06103515625,0.3662109375,-0.3662109375,-0.02978515625,-0.9296875,0.47705078125
114,0.0,0.30517578125,-0.3662109375,-0.029296875,-0.92822265625,0.47998046875
115,0.0,0.42724609375,-0.3662109375,-0.02685546875,-0.93017578125,0.47900390625
116,0.1220703125,0.42724609375,-0.42724609375,-0.02734375,-0.9296875,0.4765625
117,0.0,0.48828125,-0.48828125,-0.02880859375,-0.9296875,0.47705078125
118,0.0,0.54931640625,-0.48828125,-0.029296875,-0.9287109375,0.48095703125
119,0.1220703125,0.42724609375,-0.42724609375,-0.029296875,-0.92919921875,0.47705078125
120,0.18310546875,0.3662109375,-0.48828125,-0.02783203125,-0.9306640625,0.47705078125
121,0.1220703125,0.3662109375,-0.42724609375,-0.02978515625,-0.93115234375,0.4794921875
122,0.18310546875,0.3662109375,-0.42724609375,-0.03173828125,-0.93115234375,0.47509765625
123,0.30517578125,0.3662109375,-0.54931640625,-0.029296875,-0.9306640625,0.48046875
124,0.244140625,0.42724609375,-0.54931640625,-0.02734375,-0.92724609375,0.48193359375
125,0.30517578125,0.3662109375,-0.54931640625,-0.02685546875,-0.92822265625,0.478515625
126,0.30517578125,0.3662109375,-0.54931640625,-0.02880859375,-0.93017578125,0.478515625
127,0.244140625,0.3662109375,-0.54931640625,-0.0283203125,-0.9296875,0.478515625
128,0.1220703125,0.3662109375,-0.48828125,-0.0302734375,-0.92822265625,0.47705078125
129,0.0,0.3662109375,-0.48828125,-0.03076171875,-0.92822265625,0.47998046875
130,0.06103515625,0.30517578125,-0.48828125,-0.02685546875,-0.92724609375,0.4794921875
131,-0.06103515625,0.30517578125,-0.42724609375,-0.0263671875,-0.92919921875,0.4814453125
132,-0.06103515625,0.18310546875,-0.48828125,-0.03125,-0.9296875,0.4814453125
133,0.06103515625,0.18310546875,-0.42724609375,-0.029296875,-0.9287109375,0.47900390625
134,0.0,0.18310546875,-0.42724609375,-0.029296875,-0.927734375,0.4794921875
135,-0.06103515625,0.30517578125,-0.42724609375,-0.029296875,-0.92919921875,0.48095703125
136,-0.06103515625,0.30517578125,-0.48828125,-0.0302734375,-0.92919921875,0.47998046875
137,-0.06103515625,0.18310546875,-0.48828125,-0.0302734375,-0.9296875,0.48193359375
138,0.0,0.06103515625,-0.42724609375,-0.03076171875,-0.9287109375,0.48095703125
139,0.0,0.06103515625,-0.48828125,-0.0322265625,-0.9287109375,0.48046875
140,-0.1220703125,0.06103515625,-0.54931640625,-0.02880859375,-0.93017578125,0.47998046875
141,-0.1220703125,0.18310546875,-0.48828125,-0.02734375,-0.9287109375,0.48193359375
142,-0.1220703125,0.18310546875,-0.54931640625,-0.02880859375,-0.9287109375,0.478515625
143,-0.18310546875,0.18310546875,-0.54931640625,-0.02880859375,-0.927734375,0.4775390625
144,-0.1220703125,0.244140625,-0.48828125,-0.02880859375,-0.93017578125,0.47802734375
145,-0.06103515625,0.244140625,-0.48828125,-0.029296875,-0.92919921875,0.4794921875
146,-0.06103515625,0.244140625,-0.67138671875,-0.0283203125,-0.92724609375,0.48095703125
147,0.06103515625,0.244140625,-0.6103515625,-0.02734375,-0.9287109375,0.47998046875
148,-0.06103515625,0.3662109375,-0.54931640625,-0.02783203125,-0.93017578125,0.47998046875
149,-0.06103515625,0.42724609375,-0.54931640625,-0.029296875,-0.9296875,0.48095703125
150,0.1220703125,0.48828125,-0.48828125,-0.0283203125,-0.9287109375,0.48046875
151,0.06103515625,0.42724609375,-0.48828125,-0.02734375,-0.9267578125,0.48046875
152,-0.06103515625,0.48828125,-0.48828125,-0.03076171875,-0.92724609375,0.4833984375
153,-0.06103515625,0.42724609375,-0.48828125,-0.029296875,-0.9287109375,0.4794921875
154,-0.06103515625,0.6103515625,-0.42724609375,-0.02880859375,-0.92919921875,0.47900390625
155,-0.30517578125,0.48828125,-0.48828125,-0.0302734375,-0.93017578125,0.48095703125
156,-0.30517578125,0.42724609375,-0.42724609375,-0.029296875,-0.9306640625,0.478515625
157,-0.30517578125,0.42724609375,-0.48828125,-0.02783203125,-0.9287109375,0.48095703125
158,-0.42724609375,0.48828125,-0.42724609375,-0.02880859375,-0.927734375,0.47900390625
159,-0.48828125,0.48828125,-0.30517578125,-0.03125,-0.9296875,0.478515625
160,-0.48828125,0.42724609375,-0.3662109375,-0.02978515625,-0.9306640625,0.48046875
161,-0.42724609375,0.48828125,-0.3662109375,-0.02734375,-0.92822265625,0.48095703125
162,-0.244140625,0.42724609375,-0.3662109375,-0.0283203125,-0.927734375,0.47998046875
163,-0.1220703125,0.3662109375,-0.3662109375,-0.0302734375,-0.92822265625,0.47998046875
164,-0.1220703125,0.48828125,-0.3662109375,-0.0283203125,-0.9296875,0.4794921875
165,-0.244140625,0.54931640625,-0.3662109375,-0.02783203125,-0.9287109375,0.48046875
166,-0.30517578125,0.48828125,-0.3662109375,-0.02734375,-0.93017578125,0.478515625
167,-0.30517578125,0.42724609375,-0.3662109375,-0.02880859375,-0.9296875,0.47900390625
168,-0.54931640625,0.42724609375,-0.42724609375,-0.02978515625,-0.9296875,0.48095703125
169,-0.6103515625,0.42724609375,-0.3662109375,-0.0283203125,-0.9287109375,0.478515625
170,-0.6103515625,0.48828125,-0.3662109375,-0.02783203125,-0.9296875,0.4775390625
171,-0.6103515625,0.42724609375,-0.3662109375,-0.02734375,-0.92919921875,0.47998046875
172,-0.6103515625,0.30517578125,-0.3662109375,-0.0283203125,-0.931640625,0.4794921875
173,-0.42724609375,0.42724609375,-0.48828125,-0.029296875,-0.92919921875,0.47900390625
174,-0.30517578125,0.42724609375,-0.48828125,-0.0283203125,-0.93115234375,0.47900390625
175,-0.1220703125,0.3662109375,-0.42724609375,-0.02783203125,-0.9296875,0.4794921875
176,-0.1220703125,0.3662109375,-0.42724609375,-0.02880859375,-0.93017578125,0.47998046875
177,-0.06103515625,0.3662109375,-0.42724609375,-0.02783203125,-0.9296875,0.47802734375
178,-0.06103515625,0.42724609375,-0.42724609375,-0.02734375,-0.931640625,0.47900390625
179,-0.244140625,0.48828125,-0.42724609375,-0.02880859375,-0.9296875,0.47900390625
180,-0.30517578125,0.42724609375,-0.42724609375,-0.03076171875,-0.9287109375,0.47998046875
181,-0.3662109375,0.3662109375,-0.54931640625,-0.02978515625,-0.927734375,0.4794921875
182,-0.48828125,0.48828125,-0.42724609375,-0.0283203125,-0.927734375,0.47998046875
183,-0.42724609375,0.48828125,-0.42724609375,-0.02783203125,-0.92822265625,0.48046875
184,-0.48828125,0.48828125,-0.48828125,-0.029296875,-0.927734375,0.4765625
185,-0.54931640625,0.54931640625,-0.42724609375,-0.02734375,-0.93017578125,0.4775390625
186,-0.54931640625,0.48828125,-0.3662109375,-0.03271484375,-0.92919921875,0.47802734375
187,-0.54931640625,0.3662109375,-0.42724609375,-0.02978515625,-0.93212890625,0.478515625
188,-0.42724609375,0.3662109375,-0.48828125,-0.02734375,-0.93115234375,0.47607421875
189,-0.244140625,0.42724609375,-0.48828125,-0.02978515625,-0.93115234375,0.4794921875
190,-0.30517578125,0.30517578125,-0.42724609375,-0.0302734375,-0.93115234375,0.4814453125
191,-0.30517578125,0.42724609375,-0.42724609375,-0.03173828125,-0.9326171875,0.4775390625
192,-0.06103515625,0.42724609375,-0.48828125,-0.03125,-0.9306640625,0.47607421875
193,-0.1220703125,0.30517578125,-0.42724609375,-0.02880859375,-0.9296875,0.4794921875
194,-0.06103515625,0.3662109375,-0.42724609375,-0.02978515625,-0.9287109375,0.47900390625
195,-0.244140625,0.30517578125,-0.3662109375,-0.02880859375,-0.92822265625,0.47900390625
196,-0.42724609375,0.30517578125,-0.3662109375,-0.0283203125,-0.9287109375,0.478515625
197,-0.3662109375,0.3662109375,-0.42724609375,-0.0283203125,-0.93017578125,0.478515625
198,-0.48828125,0.30517578125,-0.30517578125,-0.0302734375,-0.9306640625,0.47900390625
199,-0.48828125,0.244140625,-0.3662109375,-0.03173828125,-0.93017578125,0.4794921875
200,-0.42724609375,0.1220703125,-0.3662109375,-0.02978515625,-0.9296875,0.48046875
201,-0.3662109375,0.18310546875,-0.3662109375,-0.02880859375,-0.9287109375,0.47802734375
202,-0.54931640625,0.30517578125,-0.3662109375,-0.02734375,-0.927734375,0.47802734375
203,-0.67138671875,0.30517578125,-0.42724609375,-0.02880859375,-0.93212890625,0.47705078125
204,-0.54931640625,0.42724609375,-0.3662109375,-0.029296875,-0.9306640625,0.47607421875
205,-0.30517578125,0.42724609375,-0.3662109375,-0.029296875,-0.931640625,0.4755859375
206,-0.06103515625,0.3662109375,-0.42724609375,-0.03125,-0.93359375,0.47705078125
207,-0.06103515625,0.30517578125,-0.48828125,-0.02880859375,-0.93115234375,0.47802734375
208,-0.06103515625,0.30517578125,-0.42724609375,-0.03125,-0.93017578125,0.47705078125
209,-0.06103515625,0.30517578125,-0.42724609375,-0.02880859375,-0.92919921875,0.4765625
210,0.0,0.3662109375,-0.42724609375,-0.0302734375,-0.9326171875,0.47607421875
211,0.06103515625,0.244140625,-0.54931640625,-0.029296875,-0.93115234375,0.4755859375
212,0.1220703125,0.18310546875,-0.54931640625,-0.02880859375,-0.9296875,0.47802734375
213,0.06103515625,0.18310546875,-0.42724609375,-0.02880859375,-0.93115234375,0.47900390625
214,0.0,0.244140625,-0.48828125,-0.0302734375,-0.9306640625,0.47802734375
215,0.0,0.244140625,-0.54931640625,-0.02978515625,-0.92919921875,0.4775390625
216,0.06103515625,0.244140625,-0.48828125,-0.03076171875,-0.9296875,0.47998046875
217,0.06103515625,0.18310546875,-0.48828125,-0.03125,-0.9296875,0.4794921875
218,0.06103515625,0.18310546875,-0.54931640625,-0.029296875,-0.93017578125,0.47705078125
219,0.18310546875,0.244140625,-0.48828125,-0.02978515625,-0.9296875,0.478515625
220,0.244140625,0.244140625,-0.48828125,-0.0302734375,-0.92822265625,0.4765625
221,0.1220703125,0.30517578125,-0.54931640625,-0.03076171875,-0.9287109375,0.47705078125
222,0.1220703125,0.42724609375,-0.54931640625,-0.029296875,-0.931640625,0.478515625
223,0.1220703125,0.42724609375,-0.54931640625,-0.03076171875,-0.92919921875,0.4775390625
224,0.06103515625,0.3662109375,-0.48828125,-0.03076171875,-0.92919921875,0.47802734375
225,-0.06103515625,0.3662109375,-0.48828125,-0.029296875,-0.92724609375,0.4794921875
226,-0.06103515625,0.3662109375,-0.54931640625,-0.029296875,-0.92919921875,0.47998046875
227,0.0,0.3662109375,-0.54931640625,-0.029296875,-0.93115234375,0.4775390625
228,0.0,0.3662109375,-0.6103515625,-0.0302734375,-0.9306640625,0.47900390625
229,0.0,0.3662109375,-0.54931640625,-0.03076171875,-0.9296875,0.4775390625
230,-0.06103515625,0.3662109375,-0.54931640625,-0.03173828125,-0.9296875,0.4794921875
231,0.0,0.3662109375,-0.6103515625,-0.03076171875,-0.93017578125,0.48095703125
232,0.1220703125,0.3662109375,-0.6103515625,-0.0283203125,-0.92919921875,0.47900390625
233,0.0,0.30517578125,-0.6103515625,-0.02978515625,-0.92919921875,0.47509765625
234,0.1220703125,0.30517578125,-0.54931640625,-0.0322265625,-0.9306640625,0.4775390625
235,0.18310546875,0.244140625,-0.54931640625,-0.029296875,-0.9306640625,0.4755859375
236,0.18310546875,0.244140625,-0.6103515625,-0.029296875,-0.9287109375,0.478515625
237,0.1220703125,0.30517578125,-0.54931640625,-0.03076171875,-0.9287109375,0.4814453125
238,0.06103515625,0.244140625,-0.48828125,-0.0283203125,-0.9287109375,0.48095703125
239,0.1220703125,0.48828125,-0.48828125,-0.02978515625,-0.92822265625,0.47998046875
240,0.1220703125,0.42724609375,-0.54931640625,-0.029296875,-0.93017578125,0.47802734375
241,0.06103515625,0.244140625,-0.42724609375,-0.029296875,-0.9306640625,0.478515625
242,0.0,0.3662109375,-0.48828125,-0.0283203125,-0.92822265625,0.4794921875
243,-0.18310546875,0.42724609375,-0.48828125,-0.02978515625,-0.9287109375,0.4814453125
244,-0.244140625,0.3662109375,-0.42724609375,-0.02978515625,-0.93017578125,0.47900390625
245,-0.244140625,0.3662109375,-0.3662109375,-0.03125,-0.93017578125,0.478515625
246,-0.244140625,0.30517578125,-0.3662109375,-0.0302734375,-0.927734375,0.4794921875
247,-0.3662109375,0.30517578125,-0.42724609375,-0.02978515625,-0.9296875,0.47607421875
248,-0.42724609375,0.3662109375,-0.42724609375,-0.03076171875,-0.92822265625,0.47802734375
249,-0.42724609375,0.3662109375,-0.48828125,-0.0302734375,-0.93017578125,0.478515625
250,-0.48828125,0.3662109375,-0.42724609375,-0.02880859375,-0.9306640625,0.47900390625
251,-0.48828125,0.3662109375,-0.42724609375,-0.02783203125,-0.9287109375,0.47900390625
252,-0.3662109375,0.244140625,-0.42724609375,-0.029296875,-0.92919921875,0.478515625
253,-0.3662109375,0.3662109375,-0.42724609375,-0.0302734375,-0.92919921875,0.47705078125
254,-0.30517578125,0.3662109375,-0.3662109375,-0.0302734375,-0.93017578125,0.47998046875
255,-0.244140625,0.42724609375,-0.48828125,-0.029296875,-0.92822265625,0.47802734375
256,-0.3662109375,0.3662109375,-0.48828125,-0.029296875,-0.9306640625,0.478515625
257,-0.42724609375,0.18310546875,-0.42724609375,-0.0302734375,-0.93017578125,0.4775390625
258,-0.3662109375,0.18310546875,-0.54931640625,-0.02978515625,-0.92822265625,0.47607421875
259,-0.244140625,0.18310546875,-0.54931640625,-0.029296875,-0.93017578125,0.47900390625
260,-0.244140625,0.30517578125,-0.54931640625,-0.02880859375,-0.9326171875,0.47802734375
261,-0.18310546875,0.18310546875,-0.48828125,-0.0302734375,-0.931640625,0.47509765625
262,-0.1220703125,0.1220703125,-0.48828125,-0.03125,-0.93017578125,0.4765625
263,-0.06103515625,0.244140625,-0.54931640625,-0.02734375,-0.93017578125,0.478515625
264,-0.06103515625,0.244140625,-0.48828125,-0.0302734375,-0.9296875,0.47705078125
265,-0.06103515625,0.18310546875,-0.54931640625,-0.03125,-0.92919921875,0.47705078125
266,0.0,0.30517578125,-0.48828125,-0.029296875,-0.92919921875,0.4765625
267,0.0,0.3662109375,-0.54931640625,-0.029296875,-0.92822265625,0.47900390625
268,0.0,0.3662109375,-0.48828125,-0.03076171875,-0.93017578125,0.47900390625
269,-0.06103515625,0.30517578125,-0.42724609375,-0.03076171875,-0.93115234375,0.478515625
270,0.0,0.30517578125,-0.48828125,-0.02783203125,-0.92919921875,0.4775390625
271,0.0,0.30517578125,-0.42724609375,-0.029296875,-0.9306640625,0.478515625
272,-0.06103515625,0.42724609375,-0.42724609375,-0.02978515625,-0.9306640625,0.47705078125
273,0.06103515625,0.48828125,-0.48828125,-0.029296875,-0.93017578125,0.4794921875
274,0.1220703125,0.42724609375,-0.48828125,-0.029296875,-0.9296875,0.4765625
275,0.18310546875,0.244140625,-0.48828125,-0.0302734375,-0.93017578125,0.4775390625
276,0.30517578125,0.18310546875,-0.48828125,-0.0302734375,-0.9296875,0.4775390625
277,0.1220703125,0.244140625,-0.48828125,-0.02734375,-0.927734375,0.478515625
278,-0.06103515625,0.30517578125,-0.42724609375,-0.02978515625,-0.92724609375,0.48046875
279,-0.18310546875,0.30517578125,-0.3662109375,-0.029296875,-0.92724609375,0.48095703125
280,-0.42724609375,0.3662109375,-0.3662109375,-0.029296875,-0.9296875,0.4794921875
281,-0.3662109375,0.42724609375,-0.42724609375,-0.02880859375,-0.9296875,0.47900390625
282,-0.48828125,0.30517578125,-0.30517578125,-0.02978515625,-0.9287109375,0.478515625
283,-0.54931640625,0.30517578125,-0.30517578125,-0.029296875,-0.9287109375,0.478515625
284,-0.48828125,0.42724609375,-0.42724609375,-0.02978515625,-0.92919921875,0.4794921875
285,-0.48828125,0.3662109375,-0.3662109375,-0.02978515625,-0.931640625,0.47900390625
286,-0.54931640625,0.30517578125,-0.30517578125,-0.0302734375,-0.9306640625,0.4794921875
287,-0.3662109375,0.244140625,-0.30517578125,-0.03076171875,-0.93115234375,0.47900390625
288,-0.42724609375,0.18310546875,-0.244140625,-0.03125,-0.92919921875,0.478515625
289,-0.42724609375,0.0,-0.30517578125,-0.03076171875,-0.9296875,0.47607421875
290,-0.18310546875,-0.1220703125,-0.244140625,-0.029296875,-0.93017578125,0.474609375
291,-0.18310546875,-0.1220703125,-0.30517578125,-0.02978515625,-0.9287109375,0.48046875
292,-0.1220703125,-0.1220703125,-0.18310546875,-0.029296875,-0.9306640625,0.4775390625
293,-0.18310546875,-0.1220703125,-0.244140625,-0.02978515625,-0.9306640625,0.4775390625
294,-0.18310546875,-0.06103515625,-0.244140625,-0.029296875,-0.92919921875,0.47705078125
295,-0.06103515625,0.0,-0.30517578125,-0.029296875,-0.93115234375,0.4775390625
296,-0.06103515625,0.0,-0.30517578125,-0.02978515625,-0.93017578125,0.4794921875
297,0.0,0.18310546875,-0.30517578125,-0.029296875,-0.92822265625,0.4765625
298,0.0,0.18310546875,-0.30517578125,-0.0302734375,-0.92724609375,0.47705078125
299,-0.06103515625,0.30517578125,-0.244140625,-0.0302734375,-0.93115234375,0.48095703125
300,0.0,0.30517578125,-0.30517578125,-0.03076171875,-0.931640625,0.4765625
301,0.0,0.42724609375,-0.30517578125,-0.03076171875,-0.9306640625,0.478515625
302,-0.1220703125,0.54931640625,-0.244140625,-0.03125,-0.9296875,0.478515625
303,-0.244140625,0.54931640625,-0.30517578125,-0.03076171875,-0.92919921875,0.47802734375
304,-0.244140625,0.48828125,-0.3662109375,-0.03173828125,-0.93115234375,0.4794921875
305,-0.244140625,0.30517578125,-0.3662109375,-0.03466796875,-0.93212890625,0.474609375
306,-0.18310546875,0.18310546875,-0.3662109375,-0.03125,-0.93115234375,0.4765625
307,-0.3662109375,0.244140625,-0.48828125,-0.02880859375,-0.9287109375,0.48095703125
308,-0.3662109375,0.3662109375,-0.42724609375,-0.03076171875,-0.92919921875,0.4755859375
309,-0.42724609375,0.48828125,-0.3662109375,-0.02978515625,-0.9306640625,0.4736328125
310,-0.3662109375,0.54931640625,-0.48828125,-0.029296875,-0.931640625,0.4765625
311,-0.18310546875,0.48828125,-0.42724609375,-0.0322265625,-0.93017578125,0.4765625
312,-0.18310546875,0.54931640625,-0.3662109375,-0.02783203125,-0.93017578125,0.4755859375
313,-0.06103515625,0.6103515625,-0.48828125,-0.029296875,-0.92919921875,0.47900390625
314,0.0,0.67138671875,-0.6103515625,-0.0302734375,-0.92919921875,0.47900390625
315,-0.06103515625,0.67138671875,-0.48828125,-0.0322265625,-0.92919921875,0.478515625
316,0.06103515625,0.48828125,-0.48828125,-0.0341796875,-0.93212890625,0.47705078125
317,0.06103515625,0.1220703125,-0.48828125,-0.03173828125,-0.93359375,0.47900390625
318,0.0,0.1220703125,-0.48828125,-0.02734375,-0.9296875,0.47900390625
319,0.0,0.244140625,-0.48828125,-0.02880859375,-0.9287109375,0.47998046875
320,-0.06103515625,0.244140625,-0.42724609375,-0.03173828125,-0.92822265625,0.4775390625
321,0.0,0.3662109375,-0.54931640625,-0.03173828125,-0.9287109375,0.4765625
322,0.06103515625,0.30517578125,-0.54931640625,-0.02978515625,-0.92822265625,0.47998046875
323,0.06103515625,0.3662109375,-0.54931640625,-0.03125,-0.9306640625,0.478515625
324,0.1220703125,0.30517578125,-0.48828125,-0.03125,-0.9296875,0.4775390625
325,0.06103515625,0.30517578125,-0.48828125,-0.02783203125,-0.9296875,0.4775390625
326,0.06103515625,0.42724609375,-0.54931640625,-0.03125,-0.9296875,0.4765625
327,0.0,0.3662109375,-0.48828125,-0.0283203125,-0.9287109375,0.4794921875
328,0.0,0.48828125,-0.48828125,-0.03076171875,-0.92724609375,0.47802734375
329,0.06103515625,0.30517578125,-0.48828125,-0.0322265625,-0.92919921875,0.4775390625
330,0.0,0.18310546875,-0.42724609375,-0.02978515625,-0.92919921875,0.48046875
331,-0.1220703125,0.3662109375,-0.42724609375,-0.0283203125,-0.92822265625,0.48046875
332,-0.18310546875,0.30517578125,-0.42724609375,-0.02978515625,-0.9287109375,0.47802734375
333,-0.18310546875,0.30517578125,-0.48828125,-0.033203125,-0.93115234375,0.4765625
334,-0.244140625,0.18310546875,-0.54931640625,-0.0341796875,-0.931640625,0.478515625
335,-0.06103515625,0.06103515625,-0.54931640625,-0.03125,-0.93017578125,0.4775390625
336,0.0,0.1220703125,-0.6103515625,-0.02880859375,-0.9296875,0.4775390625
337,-0.06103515625,0.18310546875,-0.42724609375,-0.02978515625,-0.93017578125,0.47802734375
338,0.06103515625,0.1220703125,-0.48828125,-0.02978515625,-0.92822265625,0.4775390625
339,0.18310546875,0.244140625,-0.54931640625,-0.03076171875,-0.927734375,0.47998046875
340,0.244140625,0.244140625,-0.42724609375,-0.03125,-0.93310546875,0.4794921875
341,0.18310546875,0.1220703125,-0.6103515625,-0.0283203125,-0.93115234375,0.478515625
342,0.244140625,0.18310546875,-0.48828125,-0.029296875,-0.9296875,0.47900390625
343,0.18310546875,0.3662109375,-0.54931640625,-0.029296875,-0.9287109375,0.47802734375
344,0.1220703125,0.42724609375,-0.54931640625,-0.02880859375,-0.9296875,0.47802734375
345,0.0,0.42724609375,-0.54931640625,-0.02685546875,-0.93017578125,0.4775390625
346,0.0,0.54931640625,-0.54931640625,-0.02783203125,-0.92822265625,0.47802734375
347,-0.1220703125,0.54931640625,-0.48828125,-0.03173828125,-0.93017578125,0.4775390625
348,-0.1220703125,0.18310546875,-0.48828125,-0.03466796875,-0.9326171875,0.47802734375
349,-0.06103515625,0.0,-0.48828125,-0.03173828125,-0.93115234375,0.4794921875
350,-0.06103515625,0.0,-0.54931640625,-0.03076171875,-0.9296875,0.47998046875
351,0.06103515625,0.06103515625,-0.54931640625,-0.029296875,-0.9306640625,0.478515625
352,0.244140625,0.1220703125,-0.54931640625,-0.02783203125,-0.9296875,0.47705078125
353,0.30517578125,0.1220703125,-0.54931640625,-0.03076171875,-0.92919921875,0.4814453125
354,0.244140625,0.30517578125,-0.54931640625,-0.0322265625,-0.927734375,0.48095703125
355,0.1220703125,0.3662109375,-0.54931640625,-0.03076171875,-0.927734375,0.47998046875
356,-0.06103515625,0.30517578125,-0.48828125,-0.02880859375,-0.92919921875,0.48046875
357,-0.1220703125,0.30517578125,-0.42724609375,-0.03076171875,-0.9296875,0.48095703125
358,-0.244140625,0.3662109375,-0.48828125,-0.0302734375,-0.9306640625,0.4814453125
359,-0.18310546875,0.42724609375,-0.48828125,-0.0322265625,-0.9306640625,0.4814453125
360,-0.18310546875,0.3662109375,-0.42724609375,-0.03125,-0.931640625,0.47705078125
361,0.06103515625,0.30517578125,-0.48828125,-0.03076171875,-0.93212890625,0.478515625
362,0.0,0.244140625,-0.48828125,-0.0283203125,-0.931640625,0.47705078125
363,0.18310546875,0.30517578125,-0.48828125,-0.03076171875,-0.93115234375,0.47705078125
364,0.244140625,0.244140625,-0.48828125,-0.0283203125,-0.931640625,0.47802734375
365,0.18310546875,0.30517578125,-0.54931640625,-0.02734375,-0.92919921875,0.48046875
366,0.3662109375,0.3662109375,-0.54931640625,-0.029296875,-0.931640625,0.48095703125
367,0.244140625,0.42724609375,-0.48828125,-0.0322265625,-0.93115234375,0.47998046875
368,0.30517578125,0.18310546875,-0.6103515625,-0.03125,-0.93115234375,0.478515625
369,0.18310546875,0.06103515625,-0.54931640625,-0.02685546875,-0.92919921875,0.47705078125
370,0.1220703125,0.18310546875,-0.42724609375,-0.0283203125,-0.9287109375,0.482421875
371,0.06103515625,0.18310546875,-0.54931640625,-0.0283203125,-0.93017578125,0.4833984375
372,0.1220703125,0.18310546875,-0.54931640625,-0.0302734375,-0.93115234375,0.4794921875
373,0.244140625,0.244140625,-0.54931640625,-0.0302734375,-0.93017578125,0.47900390625
374,0.244140625,0.1220703125,-0.54931640625,-0.02978515625,-0.931640625,0.4775390625
375,0.30517578125,0.06103515625,-0.6103515625,-0.03125,-0.93017578125,0.4765625
376,0.30517578125,0.0,-0.54931640625,-0.03076171875,-0.92822265625,0.47998046875
377,0.30517578125,0.0,-0.54931640625,-0.029296875,-0.9306640625,0.4814453125
378,0.3662109375,0.0,-0.6103515625,-0.029296875,-0.93310546875,0.47802734375
379,0.48828125,0.0,-0.6103515625,-0.03076171875,-0.93115234375,0.4794921875
380,0.54931640625,-0.18310546875,-0.67138671875,-0.0302734375,-0.927734375,0.48291015625
381,0.3662109375,-0.244140625,-0.6103515625,-0.025390625,-0.92919921875,0.48046875
382,0.42724609375,0.1220703125,-0.6103515625,-0.029296875,-0.92822265625,0.47998046875
383,0.42724609375,0.1220703125,-0.67138671875,-0.02978515625,-0.92822265625,0.47900390625
384,0.42724609375,0.1220703125,-0.6103515625,-0.0283203125,-0.9296875,0.478515625
385,0.48828125,0.06103515625,-0.6103515625,-0.02978515625,-0.92919921875,0.48046875
386,0.42724609375,-0.06103515625,-0.67138671875,-0.02880859375,-0.9287109375,0.4814453125
387,0.42724609375,0.06103515625,-0.67138671875,-0.02783203125,-0.92822265625,0.48046875
388,0.42724609375,0.18310546875,-0.67138671875,-0.02978515625,-0.9287109375,0.47900390625
389,0.42724609375,0.244140625,-0.67138671875,-0.029296875,-0.92822265625,0.48095703125
390,0.54931640625,0.30517578125,-0.67138671875,-0.02978515625,-0.93017578125,0.47802734375
391,0.67138671875,0.3662109375,-0.67138671875,-0.0302734375,-0.9306640625,0.4794921875
392,0.732421875,0.1220703125,-0.67138671875,-0.0302734375,-0.92919921875,0.48095703125
393,0.67138671875,0.18310546875,-0.54931640625,-0.02783203125,-0.92529296875,0.48193359375
394,0.42724609375,0.244140625,-0.54931640625,-0.02734375,-0.9267578125,0.484375
395,0.18310546875,0.244140625,-0.54931640625,-0.0283203125,-0.9287109375,0.4833984375
396,0.06103515625,0.3662109375,-0.54931640625,-0.03076171875,-0.9296875,0.48046875
397,-0.1220703125,0.3662109375,-0.54931640625,-0.03076171875,-0.927734375,0.48095703125
398,0.0,0.3662109375,-0.54931640625,-0.03125,-0.92822265625,0.4814453125
399,-0.1220703125,0.18310546875,-0.48828125,-0.0302734375,-0.9296875,0.48193359375
400,-0.1220703125,0.1220703125,-0.54931640625,-0.02880859375,-0.93115234375,0.47998046875
401,0.1220703125,0.1220703125,-0.67138671875,-0.0302734375,-0.9306640625,0.47900390625
402,0.1220703125,0.1220703125,-0.67138671875,-0.03173828125,-0.92919921875,0.4794921875
403,0.1220703125,0.18310546875,-0.732421875,-0.0283203125,-0.92822265625,0.48193359375
404,0.30517578125,0.18310546875,-0.67138671875,-0.02783203125,-0.92822265625,0.4814453125
405,0.244140625,0.06103515625,-0.6103515625,-0.0283203125,-0.9267578125,0.4833984375
406,0.18310546875,0.1220703125,-0.6103515625,-0.02734375,-0.9267578125,0.48388671875
407,0.0,0.1220703125,-0.6103515625,-0.02734375,-0.9267578125,0.48095703125
408,-0.1220703125,0.18310546875,-0.6103515625,-0.02734375,-0.92919921875,0.47998046875
409,-0.06103515625,0.3662109375,-0.54931640625,-0.02783203125,-0.927734375,0.48095703125
410,0.0,0.30517578125,-0.54931640625,-0.02783203125,-0.9287109375,0.48046875
411,0.1220703125,0.3662109375,-0.54931640625,-0.02734375,-0.9296875,0.4814453125
412,0.06103515625,0.42724609375,-0.54931640625,-0.02783203125,-0.92919921875,0.48046875
413,0.0,0.42724609375,-0.6103515625,-0.02783203125,-0.92822265625,0.48388671875
414,0.1220703125,0.48828125,-0.54931640625,-0.0283203125,-0.9296875,0.48388671875
415,0.06103515625,0.48828125,-0.54931640625,-0.0263671875,-0.92919921875,0.48046875
416,0.1220703125,0.3662109375,-0.54931640625,-0.02880859375,-0.93017578125,0.47900390625
417,0.30517578125,0.30517578125,-0.54931640625,-0.029296875,-0.93017578125,0.48486328125
418,0.244140625,0.3662109375,-0.6103515625,-0.0302734375,-0.9287109375,0.482421875
419,0.06103515625,0.42724609375,-0.54931640625,-0.02734375,-0.927734375,0.48193359375
420,0.1220703125,0.3662109375,-0.54931640625,-0.02783203125,-0.927734375,0.48046875
421,0.1220703125,0.3662109375,-0.54931640625,-0.0283203125,-0.92724609375,0.482421875
422,0.0,0.3662109375,-0.48828125,-0.02783203125,-0.92578125,0.484375
423,-0.1220703125,0.3662109375,-0.54931640625,-0.0302734375,-0.92724609375,0.48095703125
424,0.0,0.244140625,-0.6103515625,-0.03076171875,-0.92626953125,0.478515625
425,-0.06103515625,0.244140625,-0.54931640625,-0.029296875,-0.92822265625,0.4814453125
426,-0.06103515625,0.244140625,-0.48828125,-0.0263671875,-0.9267578125,0.48095703125
427,0.1220703125,0.30517578125,-0.54931640625,-0.02783203125,-0.927734375,0.47998046875
428,0.1220703125,0.42724609375,-0.48828125,-0.02880859375,-0.9296875,0.4833984375
429,0.1220703125,0.3662109375,-0.48828125,-0.029296875,-0.93115234375,0.48291015625
430,0.0,0.30517578125,-0.54931640625,-0.02978515625,-0.92919921875,0.482421875
431,0.1220703125,0.42724609375,-0.54931640625,-0.02978515625,-0.92822265625,0.4833984375
432,0.244140625,0.3662109375,-0.48828125,-0.02734375,-0.92822265625,0.48193359375
433,0.06103515625,0.18310546875,-0.48828125,-0.02880859375,-0.92724609375,0.4814453125
434,-0.1220703125,0.244140625,-0.48828125,-0.02880859375,-0.9267578125,0.48193359375
435,-0.06103515625,0.30517578125,-0.42724609375,-0.0283203125,-0.9296875,0.48193359375
436,0.1220703125,0.3662109375,-0.48828125,-0.02685546875,-0.927734375,0.484375
437,0.06103515625,0.3662109375,-0.54931640625,-0.029296875,-0.927734375,0.48388671875
438,0.06103515625,0.42724609375,-0.48828125,-0.0283203125,-0.927734375,0.4814453125
439,0.06103515625,0.42724609375,-0.42724609375,-0.0302734375,-0.92724609375,0.4833984375
440,-0.06103515625,0.3662109375,-0.42724609375,-0.02880859375,-0.9287109375,0.48291015625
441,-0.06103515625,0.42724609375,-0.3662109375,-0.02783203125,-0.92724609375,0.48193359375
442,-0.1220703125,0.54931640625,-0.48828125,-0.0263671875,-0.9248046875,0.484375
443,-0.42724609375,0.54931640625,-0.3662109375,-0.0263671875,-0.9248046875,0.48779296875
444,-0.732421875,0.732421875,-0.18310546875,-0.03076171875,-0.9267578125,0.48388671875
445,-0.79345703125,0.54931640625,-0.244140625,-0.03271484375,-0.93212890625,0.48291015625
446,-0.9765625,0.18310546875,-0.30517578125,-0.0302734375,-0.9306640625,0.47900390625
447,-1.0986328125,0.18310546875,-0.244140625,-0.029296875,-0.92822265625,0.47900390625
448,-0.9765625,0.30517578125,-0.244140625,-0.0263671875,-0.93017578125,0.47705078125
449,-0.54931640625,0.3662109375,-0.30517578125,-0.02783203125,-0.93310546875,0.47509765625
450,0.0,0.3662109375,-0.42724609375,-0.02880859375,-0.93212890625,0.4775390625
451,0.54931640625,0.48828125,-0.42724609375,-0.0283203125,-0.931640625,0.48193359375
452,0.79345703125,0.48828125,-0.42724609375,-0.0283203125,-0.9267578125,0.482421875
453,0.6103515625,0.48828125,-0.42724609375,-0.0283203125,-0.92529296875,0.484375
454,0.3662109375,0.54931640625,-0.42724609375,-0.02880859375,-0.92822265625,0.48193359375
455,0.18310546875,0.54931640625,-0.48828125,-0.03076171875,-0.9267578125,0.48291015625
456,-0.06103515625,0.6103515625,-0.48828125,-0.03076171875,-0.9267578125,0.48388671875
457,-0.30517578125,0.6103515625,-0.42724609375,-0.03173828125,-0.9287109375,0.484375
458,-0.30517578125,0.48828125,-0.48828125,-0.0283203125,-0.92822265625,0.48291015625
459,-0.3662109375,0.42724609375,-0.42724609375,-0.029296875,-0.9296875,0.478515625
460,-0.42724609375,0.54931640625,-0.42724609375,-0.0283203125,-0.93212890625,0.47998046875
461,-0.30517578125,0.67138671875,-0.42724609375,-0.02783203125,-0.927734375,0.482421875
462,-0.3662109375,0.79345703125,-0.48828125,-0.02587890625,-0.9287109375,0.482421875
463,-0.244140625,1.0986328125,-0.54931640625,-0.0302734375,-0.9287109375,0.48095703125
464,-0.244140625,1.03759765625,-0.54931640625,-0.029296875,-0.9287109375,0.4775390625
465,-0.18310546875,1.0986328125,-0.42724609375,-0.0283203125,-0.927734375,0.48193359375
466,-0.30517578125,1.03759765625,-0.42724609375,-0.03271484375,-0.92919921875,0.48046875
467,-0.42724609375,0.79345703125,-0.54931640625,-0.03125,-0.9287109375,0.48193359375
468,-0.42724609375,0.732421875,-0.6103515625,-0.0283203125,-0.92529296875,0.48388671875
469,-0.54931640625,0.732421875,-0.54931640625,-0.03466796875,-0.9306640625,0.48095703125
470,-0.42724609375,0.6103515625,-0.732421875,-0.0341796875,-0.93310546875,0.47900390625
471,-0.244140625,0.3662109375,-0.91552734375,-0.0302734375,-0.93115234375,0.48193359375
472,-0.30517578125,0.30517578125,-0.91552734375,-0.03173828125,-0.92919921875,0.482421875
473,-0.30517578125,0.1220703125,-1.03759765625,-0.029296875,-0.92919921875,0.48095703125
474,-0.42724609375,0.1220703125,-1.03759765625,-0.02978515625,-0.92822265625,0.48193359375
475,-0.732421875,0.244140625,-0.9765625,-0.0283203125,-0.92822265625,0.48486328125
476,-0.79345703125,0.30517578125,-1.03759765625,-0.03076171875,-0.9267578125,0.484375
477,-0.91552734375,0.3662109375,-1.03759765625,-0.02880859375,-0.92529296875,0.48291015625
478,-1.15966796875,0.42724609375,-1.03759765625,-0.0302734375,-0.92626953125,0.4814453125
479,-1.28173828125,0.48828125,-0.9765625,-0.0263671875,-0.92724609375,0.482421875
480,-1.40380859375,0.42724609375,-0.91552734375,-0.0283203125,-0.9306640625,0.47998046875
481,-1.5869140625,0.54931640625,-0.9765625,-0.0302734375,-0.92822265625,0.474609375
482,-1.5869140625,0.42724609375,-0.9765625,-0.0322265625,-0.9296875,0.4833984375
483,-1.64794921875,0.3662109375,-1.0986328125,-0.02685546875,-0.92919921875,0.48095703125
484,-1.8310546875,0.48828125,-1.03759765625,-0.025390625,-0.9267578125,0.48046875
485,-1.953125,0.48828125,-0.91552734375,-0.03125,-0.9306640625,0.47900390625
486,-1.89208984375,0.18310546875,-0.9765625,-0.03076171875,-0.931640625,0.47802734375
487,-1.77001953125,0.1220703125,-1.0986328125,-0.0283203125,-0.92578125,0.48046875
488,-1.89208984375,0.06103515625,-1.03759765625,-0.02783203125,-0.92578125,0.482421875
489,-2.197265625,0.0,-0.91552734375,-0.0244140625,-0.923828125,0.4833984375
490,-2.44140625,0.18310546875,-0.67138671875,-0.025390625,-0.923828125,0.48291015625
491,-2.86865234375,0.42724609375,-0.48828125,-0.02587890625,-0.9287109375,0.4794921875
492,-3.23486328125,0.67138671875,-0.30517578125,-0.02734375,-0.931640625,0.4765625
493,-3.41796875,0.79345703125,-0.30517578125,-0.0283203125,-0.93017578125,0.4765625
494,-3.5400390625,0.9765625,-0.30517578125,-0.02880859375,-0.9296875,0.4814453125
495,-3.47900390625,1.0986328125,-0.244140625,-0.02587890625,-0.9306640625,0.4775390625
496,-3.47900390625,1.15966796875,-0.18310546875,-0.02685546875,-0.9287109375,0.47607421875
497,-3.5400390625,1.220703125,0.0,-0.02978515625,-0.927734375,0.4755859375
498,-3.72314453125,1.0986328125,0.0,-0.029296875,-0.9306640625,0.474609375
499,-3.90625,1.0986328125,0.0,-0.02978515625,-0.93310546875,0.47265625
500,-4.0283203125,0.9765625,0.0,-0.03369140625,-0.93701171875,0.47021484375
501,-3.662109375,0.67138671875,-0.18310546875,-0.0341796875,-0.94384765625,0.46630859375
502,-2.86865234375,0.30517578125,-0.30517578125,-0.02880859375,-0.93505859375,0.4697265625
503,-2.44140625,-0.06103515625,-0.18310546875,-0.03076171875,-0.92919921875,0.474609375
504,-2.50244140625,-0.30517578125,-0.18310546875,-0.0283203125,-0.93017578125,0.4755859375
505,-2.8076171875,-0.244140625,-0.244140625,-0.0283203125,-0.931640625,0.47119140625
506,-2.86865234375,-0.42724609375,-0.18310546875,-0.03271484375,-0.9326171875,0.46728515625
507,-3.173828125,-1.03759765625,-0.06103515625,-0.03125,-0.9248046875,0.47607421875
508,-4.57763671875,-1.220703125,0.0,-0.03076171875,-0.91552734375,0.48388671875
509,-6.103515625,-1.03759765625,0.0,-0.0283203125,-0.923828125,0.47607421875
510,-7.2021484375,-0.54931640625,0.06103515625,-0.0302734375,-0.93701171875,0.46875
511,-7.568359375,-0.42724609375,0.1220703125,-0.0283203125,-0.93798828125,0.47216796875
512,-7.50732421875,-0.06103515625,0.06103515625,-0.0283203125,-0.93701171875,0.4658203125
513,-7.14111328125,0.48828125,-0.18310546875,-0.02685546875,-0.94580078125,0.4541015625
514,-5.9814453125,0.732421875,-0.244140625,-0.02490234375,-0.94775390625,0.4521484375
515,-4.69970703125,0.9765625,-0.18310546875,-0.02587890625,-0.9423828125,0.4619140625
516,-3.90625,1.0986328125,-0.244140625,-0.025390625,-0.93896484375,0.46337890625
517,-3.72314453125,1.40380859375,-0.1220703125,-0.02734375,-0.935546875,0.46240234375
518,-3.90625,1.77001953125,-0.1220703125,-0.02978515625,-0.9375,0.4619140625
519,-4.150390625,1.89208984375,-0.30517578125,-0.029296875,-0.93701171875,0.46142578125
520,-4.45556640625,2.13623046875,-0.244140625,-0.029296875,-0.94189453125,0.45654296875
521,-4.57763671875,2.38037109375,-0.3662109375,-0.029296875,-0.94580078125,0.4560546875
522,-4.69970703125,2.685546875,-0.42724609375,-0.0302734375,-0.9345703125,0.462890625
523,-5.43212890625,3.11279296875,-0.54931640625,-0.02880859375,-0.91650390625,0.47412109375
524,-7.38525390625,3.84521484375,-0.48828125,-0.02783203125,-0.912109375,0.4775390625
525,-9.8876953125,4.39453125,-0.244140625,-0.03369140625,-0.9267578125,0.46875
526,-11.3525390625,4.2724609375,-0.1220703125,-0.03271484375,-0.94482421875,0.455078125
527,-11.77978515625,4.2724609375,-0.1220703125,-0.02880859375,-0.9453125,0.451171875
528,-11.77978515625,4.33349609375,-0.30517578125,-0.03369140625,-0.9521484375,0.44921875
529,-11.23046875,4.33349609375,-0.42724609375,-0.03515625,-0.9599609375,0.4404296875
530,-9.82666015625,3.96728515625,-0.6103515625,-0.03173828125,-0.96044921875,0.4345703125
531,-8.11767578125,3.41796875,-0.6103515625,-0.0322265625,-0.95556640625,0.43505859375
532,-6.8359375,3.23486328125,-0.6103515625,-0.03271484375,-0.9482421875,0.439453125
533,-6.40869140625,3.0517578125,-0.732421875,-0.0302734375,-0.9365234375,0.4482421875
534,-7.01904296875,3.173828125,-0.67138671875,-0.0302734375,-0.93701171875,0.451171875
535,-7.99560546875,3.41796875,-0.6103515625,-0.0341796875,-0.94482421875,0.447265625
536,-8.85009765625,3.35693359375,-0.54931640625,-0.03369140625,-0.951171875,0.43994140625
537,-9.1552734375,3.11279296875,-0.54931640625,-0.0341796875,-0.95703125,0.43603515625
538,-9.27734375,2.8076171875,-0.79345703125,-0.03662109375,-0.95458984375,0.43603515625
539,-9.09423828125,2.8076171875,-0.9765625,-0.0322265625,-0.94775390625,0.4365234375
540,-9.033203125,2.86865234375,-0.9765625,-0.03271484375,-0.94921875,0.4375
541,-9.033203125,2.86865234375,-0.9765625,-0.0341796875,-0.95458984375,0.4287109375
542,-8.36181640625,2.74658203125,-1.03759765625,-0.03173828125,-0.9560546875,0.423828125
543,-7.2021484375,2.25830078125,-1.0986328125,-0.03369140625,-0.96337890625,0.42041015625
544,-5.55419921875,2.01416015625,-1.15966796875,-0.03271484375,-0.96240234375,0.41796875
545,-4.33349609375,1.77001953125,-1.15966796875,-0.03271484375,-0.95361328125,0.42578125
546,-4.45556640625,1.5869140625,-1.0986328125,-0.033203125,-0.94775390625,0.43701171875
547,-5.37109375,1.64794921875,-1.0986328125,-0.03125,-0.94482421875,0.43408203125
548,-6.34765625,1.8310546875,-1.0986328125,-0.033203125,-0.9453125,0.43359375
549,-7.38525390625,2.0751953125,-1.0986328125,-0.03466796875,-0.9462890625,0.431640625
550,-8.056640625,2.0751953125,-1.15966796875,-0.03271484375,-0.94775390625,0.4306640625
551,-8.7890625,2.0751953125,-0.9765625,-0.03173828125,-0.95361328125,0.42578125
552,-8.6669921875,2.01416015625,-0.8544921875,-0.0341796875,-0.9619140625,0.41552734375
553,-7.75146484375,1.8310546875,-0.91552734375,-0.0322265625,-0.96923828125,0.40869140625
554,-6.16455078125,1.77001953125,-0.91552734375,-0.03173828125,-0.97265625,0.4052734375
555,-4.08935546875,1.40380859375,-0.91552734375,-0.03125,-0.96875,0.40625
556,-2.3193359375,1.220703125,-0.8544921875,-0.02880859375,-0.9697265625,0.40673828125
557,-0.9765625,1.0986328125,-0.732421875,-0.02978515625,-0.96435546875,0.4091796875
558,0.244140625,0.91552734375,-0.67138671875,-0.033203125,-0.9638671875,0.4140625
559,1.0986328125,0.732421875,-0.67138671875,-0.0341796875,-0.96044921875,0.4169921875
560,1.28173828125,0.8544921875,-0.67138671875,-0.03076171875,-0.9541015625,0.42138671875
561,1.28173828125,1.3427734375,-0.732421875,-0.03125,-0.94677734375,0.423828125
562,0.91552734375,1.46484375,-0.6103515625,-0.037109375,-0.94384765625,0.4306640625
563,-0.244140625,1.0986328125,-0.6103515625,-0.033203125,-0.94580078125,0.4296875
564,-1.77001953125,1.28173828125,-0.30517578125,-0.03369140625,-0.94873046875,0.42529296875
565,-3.23486328125,1.52587890625,-0.18310546875,-0.037109375,-0.95751953125,0.4208984375
566,-3.5400390625,1.46484375,-0.1220703125,-0.0341796875,-0.962890625,0.41552734375
567,-3.2958984375,1.46484375,-0.1220703125,-0.03125,-0.9658203125,0.4140625
568,-2.9296875,1.77001953125,-0.1220703125,-0.03125,-0.9619140625,0.412109375
569,-2.685546875,2.38037109375,-0.06103515625,-0.02978515625,-0.9541015625,0.4140625
570,-2.685546875,3.173828125,-0.06103515625,-0.02734375,-0.9453125,0.4208984375
571,-3.35693359375,4.2724609375,0.0,-0.03076171875,-0.94287109375,0.4267578125
572,-4.08935546875,4.33349609375,-0.06103515625,-0.05126953125,-0.97021484375,0.4111328125
573,-3.0517578125,2.5634765625,-0.6103515625,-0.0478515625,-0.98779296875,0.39697265625
574,-1.40380859375,1.03759765625,-0.91552734375,-0.03466796875,-0.96337890625,0.41064453125
575,-1.52587890625,1.03759765625,-0.79345703125,-0.03564453125,-0.95556640625,0.41943359375
576,-1.708984375,0.91552734375,-0.79345703125,-0.03515625,-0.9697265625,0.40283203125
577,-0.8544921875,0.732421875,-0.91552734375,-0.03271484375,-0.9677734375,0.40625
578,0.42724609375,0.8544921875,-0.91552734375,-0.0341796875,-0.96533203125,0.40283203125
579,1.953125,0.48828125,-0.9765625,-0.0380859375,-0.96875,0.40380859375
580,3.41796875,-0.06103515625,-1.0986328125,-0.03662109375,-0.9619140625,0.41455078125
581,3.5400390625,-0.42724609375,-1.15966796875,-0.03515625,-0.95361328125,0.423828125
582,2.86865234375,-0.6103515625,-1.0986328125,-0.03515625,-0.95458984375,0.42041015625
583,2.197265625,-0.8544921875,-1.03759765625,-0.03662109375,-0.9609375,0.41796875
584,1.708984375,-1.15966796875,-1.220703125,-0.0380859375,-0.95947265625,0.42041015625
585,1.15966796875,-1.28173828125,-1.46484375,-0.03515625,-0.9541015625,0.42578125
586,0.42724609375,-1.15966796875,-1.40380859375,-0.03662109375,-0.95556640625,0.41845703125
587,0.244140625,-1.15966796875,-1.3427734375,-0.0341796875,-0.96142578125,0.41650390625
588,0.18310546875,-1.0986328125,-1.28173828125,-0.03466796875,-0.9599609375,0.41552734375
589,0.3662109375,-1.03759765625,-1.3427734375,-0.0341796875,-0.9599609375,0.41259765625
590,0.54931640625,-0.8544921875,-1.5869140625,-0.033203125,-0.95654296875,0.41796875
591,0.42724609375,-0.732421875,-1.64794921875,-0.03076171875,-0.951171875,0.421875
592,0.0,-0.42724609375,-1.64794921875,-0.0322265625,-0.94775390625,0.4228515625
593,-1.03759765625,-0.3662109375,-1.46484375,-0.02880859375,-0.94921875,0.4228515625
594,-2.01416015625,-0.18310546875,-1.220703125,-0.033203125,-0.955078125,0.41796875
595,-2.197265625,-0.244140625,-1.15966796875,-0.03515625,-0.9599609375,0.4130859375
596,-1.953125,-0.244140625,-1.15966796875,-0.03173828125,-0.96240234375,0.412109375
597,-1.5869140625,0.244140625,-1.220703125,-0.029296875,-0.95947265625,0.4140625
598,-1.40380859375,0.9765625,-1.220703125,-0.0302734375,-0.96142578125,0.40576171875
599,-0.79345703125,1.46484375,-1.28173828125,-0.02783203125,-0.96240234375,0.40625
600,0.1220703125,1.5869140625,-1.220703125,-0.03271484375,-0.962890625,0.4111328125
601,0.732421875,1.46484375,-1.220703125,-0.0322265625,-0.95751953125,0.416015625
602,0.8544921875,1.15966796875,-1.0986328125,-0.03466796875,-0.96142578125,0.41259765625
603,0.91552734375,0.9765625,-1.0986328125,-0.0302734375,-0.9609375,0.4150390625
604,0.91552734375,1.03759765625,-1.03759765625,-0.029296875,-0.95556640625,0.41796875
605,0.6103515625,1.220703125,-1.03759765625,-0.0302734375,-0.95263671875,0.4208984375
606,0.30517578125,1.52587890625,-0.9765625,-0.03076171875,-0.9580078125,0.412109375
607,0.48828125,1.77001953125,-1.0986328125,-0.0361328125,-0.958984375,0.4150390625
608,0.67138671875,1.5869140625,-1.3427734375,-0.0341796875,-0.95361328125,0.4208984375
609,0.0,1.40380859375,-1.220703125,-0.03369140625,-0.955078125,0.41650390625
610,-0.30517578125,1.0986328125,-1.220703125,-0.03369140625,-0.95947265625,0.41162109375
611,-0.30517578125,0.732421875,-1.15966796875,-0.029296875,-0.953125,0.4189453125
612,-0.6103515625,0.54931640625,-1.0986328125,-0.0302734375,-0.95068359375,0.41845703125
613,-1.15966796875,0.54931640625,-1.03759765625,-0.03271484375,-0.9560546875,0.4169921875
614,-1.220703125,0.732421875,-0.91552734375,-0.029296875,-0.9541015625,0.416015625
615,-1.220703125,0.79345703125,-0.91552734375,-0.03173828125,-0.95458984375,0.41943359375
616,-1.52587890625,0.54931640625,-0.8544921875,-0.033203125,-0.9609375,0.41455078125
617,-1.708984375,0.18310546875,-0.8544921875,-0.03173828125,-0.9638671875,0.41015625
618,-1.28173828125,-0.1220703125,-0.91552734375,-0.03173828125,-0.96630859375,0.408203125
619,-0.48828125,-0.48828125,-0.91552734375,-0.0341796875,-0.96728515625,0.408203125
620,0.18310546875,-0.732421875,-1.15966796875,-0.02978515625,-0.96484375,0.40771484375
621,0.732421875,-0.9765625,-1.15966796875,-0.03271484375,-0.96337890625,0.4130859375
622,0.9765625,-1.0986328125,-1.0986328125,-0.03125,-0.9599609375,0.41259765625
623,1.0986328125,-0.91552734375,-1.220703125,-0.02685546875,-0.955078125,0.4150390625
624,1.0986328125,-0.6103515625,-1.15966796875,-0.0283203125,-0.94921875,0.41943359375
625,0.67138671875,-0.30517578125,-1.15966796875,-0.02880859375,-0.94921875,0.4228515625
626,0.1220703125,-0.18310546875,-1.03759765625,-0.02880859375,-0.95361328125,0.42041015625
627,-0.18310546875,-0.244140625,-0.8544921875,-0.033203125,-0.95849609375,0.41650390625
628,-0.3662109375,-0.54931640625,-0.8544921875,-0.03271484375,-0.95849609375,0.4140625
629,-0.3662109375,-0.9765625,-0.9765625,-0.03271484375,-0.96240234375,0.412109375
630,-0.48828125,-1.28173828125,-1.0986328125,-0.03076171875,-0.962890625,0.416015625
631,-0.3662109375,-1.3427734375,-1.15966796875,-0.02880859375,-0.9638671875,0.4140625
632,-0.1220703125,-1.3427734375,-1.15966796875,-0.029296875,-0.9638671875,0.4130859375
633,0.244140625,-1.5869140625,-1.0986328125,-0.02685546875,-0.958984375,0.4150390625
634,0.48828125,-1.15966796875,-1.28173828125,-0.02685546875,-0.95947265625,0.4130859375
635,0.6103515625,-0.67138671875,-1.40380859375,-0.02880859375,-0.9580078125,0.41650390625
636,0.48828125,-0.54931640625,-1.40380859375,-0.03076171875,-0.951171875,0.42138671875
637,-0.1220703125,-0.54931640625,-1.3427734375,-0.02685546875,-0.95458984375,0.41943359375
638,-0.732421875,-0.48828125,-1.28173828125,-0.02880859375,-0.95556640625,0.419921875
639,-1.28173828125,-0.79345703125,-1.15966796875,-0.029296875,-0.9580078125,0.4189453125
640,-1.5869140625,-0.732421875,-1.15966796875,-0.02587890625,-0.95947265625,0.41455078125
641,-1.5869140625,-0.67138671875,-1.220703125,-0.02734375,-0.9609375,0.412109375
642,-1.52587890625,-0.67138671875,-1.15966796875,-0.0263671875,-0.9609375,0.41162109375
643,-1.15966796875,-0.48828125,-1.15966796875,-0.02783203125,-0.96435546875,0.40869140625
644,-0.67138671875,-0.42724609375,-1.0986328125,-0.02392578125,-0.96337890625,0.40869140625
645,-0.18310546875,-0.18310546875,-1.220703125,-0.02197265625,-0.958984375,0.4140625
646,-0.06103515625,0.1220703125,-1.28173828125,-0.02685546875,-0.95361328125,0.4150390625
647,-0.3662109375,0.244140625,-1.0986328125,-0.02734375,-0.95263671875,0.41796875
648,-0.8544921875,0.30517578125,-0.9765625,-0.02587890625,-0.95361328125,0.41845703125
649,-1.46484375,0.3662109375,-0.91552734375,-0.02587890625,-0.95751953125,0.4140625
650,-1.708984375,0.42724609375,-0.79345703125,-0.02734375,-0.9619140625,0.41357421875
651,-1.5869140625,0.48828125,-0.79345703125,-0.02685546875,-0.96337890625,0.41552734375
652,-1.5869140625,0.48828125,-0.79345703125,-0.02490234375,-0.96337890625,0.4111328125
653,-1.3427734375,0.6103515625,-0.79345703125,-0.0244140625,-0.9599609375,0.41064453125
654,-1.03759765625,0.79345703125,-0.67138671875,-0.025390625,-0.958984375,0.40966796875
655,-0.6103515625,0.91552734375,-0.6103515625,-0.02490234375,-0.95947265625,0.41015625
656,-0.244140625,1.03759765625,-0.48828125,-0.02685546875,-0.95751953125,0.4140625
657,-0.18310546875,0.79345703125,-0.54931640625,-0.0302734375,-0.96240234375,0.4140625
658,-0.3662109375,0.54931640625,-0.67138671875,-0.0283203125,-0.9580078125,0.41650390625
659,-0.8544921875,0.48828125,-0.732421875,-0.0263671875,-0.9501953125,0.42138671875
660,-1.46484375,0.67138671875,-0.6103515625,-0.025390625,-0.95166015625,0.41796875
661,-2.01416015625,0.8544921875,-0.54931640625,-0.0283203125,-0.95556640625,0.4150390625
662,-2.25830078125,0.79345703125,-0.54931640625,-0.0302734375,-0.96435546875,0.41064453125
663,-2.13623046875,0.54931640625,-0.6103515625,-0.03076171875,-0.96923828125,0.40625
664,-1.52587890625,0.1220703125,-0.79345703125,-0.02734375,-0.97119140625,0.404296875
665,-0.91552734375,-0.1220703125,-0.9765625,-0.02734375,-0.96826171875,0.40380859375
666,-0.244140625,-0.42724609375,-1.03759765625,-0.02734375,-0.9677734375,0.4072265625
667,0.244140625,-0.42724609375,-1.03759765625,-0.02587890625,-0.96044921875,0.40869140625
668,0.48828125,-0.18310546875,-0.9765625,-0.02392578125,-0.95703125,0.4150390625
669,0.54931640625,-0.06103515625,-0.79345703125,-0.021484375,-0.95458984375,0.416015625
670,0.30517578125,0.06103515625,-0.6103515625,-0.02197265625,-0.95166015625,0.41796875
671,-0.3662109375,0.3662109375,-0.48828125,-0.0244140625,-0.95263671875,0.41845703125
672,-0.9765625,0.48828125,-0.42724609375,-0.02587890625,-0.95751953125,0.41748046875
673,-1.3427734375,0.48828125,-0.42724609375,-0.02587890625,-0.95068359375,0.4208984375
674,-2.38037109375,0.30517578125,-0.30517578125,-0.02783203125,-0.93798828125,0.4296875
675,-4.39453125,0.18310546875,0.0,-0.029296875,-0.93701171875,0.43310546875
676,-6.7138671875,0.1220703125,0.1220703125,-0.02734375,-0.94775390625,0.4228515625
677,-8.30078125,0.1220703125,0.30517578125,-0.025390625,-0.9599609375,0.4111328125
678,-8.9111328125,-0.54931640625,0.79345703125,-0.02685546875,-0.9619140625,0.40283203125
679,-8.7890625,-0.8544921875,0.91552734375,-0.02490234375,-0.9560546875,0.40771484375
680,-9.21630859375,-0.6103515625,1.03759765625,-0.02392578125,-0.95263671875,0.4150390625
681,-10.498046875,-0.30517578125,1.3427734375,-0.0283203125,-0.96240234375,0.4072265625
682,-10.986328125,0.0,1.3427734375,-0.02587890625,-0.97265625,0.39501953125
683,-10.8642578125,0.1220703125,1.40380859375,-0.029296875,-0.96826171875,0.396484375
684,-10.68115234375,-0.30517578125,1.46484375,-0.03173828125,-0.9658203125,0.3955078125
685,-10.55908203125,-0.9765625,1.64794921875,-0.03076171875,-0.97705078125,0.38623046875
686,-9.21630859375,-1.46484375,1.40380859375,-0.029296875,-0.97900390625,0.3818359375
687,-7.62939453125,-2.25830078125,1.40380859375,-0.0302734375,-0.98193359375,0.38525390625
688,-6.04248046875,-2.38037109375,1.15966796875,-0.03076171875,-0.982421875,0.37939453125
689,-4.45556640625,-2.8076171875,1.03759765625,-0.02783203125,-0.98681640625,0.3720703125
690,-2.3193359375,-2.9296875,0.91552734375,-0.02734375,-0.98583984375,0.37255859375
691,0.06103515625,-3.23486328125,0.91552734375,-0.0244140625,-0.97802734375,0.37109375
692,2.50244140625,-3.11279296875,0.9765625,-0.0234375,-0.98388671875,0.36474609375
693,5.31005859375,-3.11279296875,1.0986328125,-0.0234375,-0.990234375,0.3720703125
694,7.32421875,-2.99072265625,1.03759765625,-0.02587890625,-0.986328125,0.3701171875
695,9.8876953125,-3.11279296875,0.9765625,-0.02294921875,-0.98193359375,0.37255859375
696,12.14599609375,-2.86865234375,1.03759765625,-0.02294921875,-0.97802734375,0.38037109375
697,13.7939453125,-2.685546875,1.15966796875,-0.0244140625,-0.97265625,0.388671875
698,14.70947265625,-2.3193359375,1.0986328125,-0.02197265625,-0.962890625,0.3994140625
699,15.07568359375,-1.5869140625,1.3427734375,-0.01904296875,-0.95849609375,0.40185546875
700,15.31982421875,-0.67138671875,1.5869140625,-0.02099609375,-0.9599609375,0.40576171875
701,15.5029296875,0.1220703125,1.8310546875,-0.01904296875,-0.958984375,0.40966796875
702,16.11328125,0.79345703125,1.89208984375,-0.02294921875,-0.95654296875,0.41552734375
703,17.27294921875,1.3427734375,1.8310546875,-0.02587890625,-0.9619140625,0.412109375
704,18.06640625,1.8310546875,1.708984375,-0.02978515625,-0.96484375,0.41552734375
705,18.61572265625,1.89208984375,1.15966796875,-0.04736328125,-0.966796875,0.42578125
706,18.5546875,0.67138671875,0.1220703125,-0.0595703125,-0.98095703125,0.42138671875
707,19.71435546875,-1.40380859375,-1.52587890625,-0.05712890625,-0.98828125,0.4111328125
708,21.240234375,-3.173828125,-2.685546875,-0.03955078125,-0.96240234375,0.43115234375
709,20.32470703125,-3.23486328125,-3.35693359375,-0.03564453125,-0.94873046875,0.4443359375
710,18.310546875,-3.2958984375,-3.662109375,-0.0322265625,-0.94677734375,0.44140625
711,16.78466796875,-3.35693359375,-3.60107421875,-0.0263671875,-0.94921875,0.44091796875
712,16.41845703125,-3.173828125,-3.41796875,-0.0234375,-0.95068359375,0.44091796875
713,16.845703125,-2.62451171875,-3.23486328125,-0.01953125,-0.9443359375,0.44287109375
714,16.9677734375,-1.953125,-3.11279296875,-0.01904296875,-0.94384765625,0.443359375
715,17.39501953125,-1.03759765625,-2.86865234375,-0.02197265625,-0.94580078125,0.43994140625
716,18.00537109375,-0.244140625,-2.62451171875,-0.021484375,-0.9482421875,0.44580078125
717,18.73779296875,0.67138671875,-2.5634765625,-0.01904296875,-0.9501953125,0.44677734375
718,19.47021484375,1.5869140625,-2.62451171875,-0.0244140625,-0.94921875,0.44775390625
719,19.8974609375,2.13623046875,-2.685546875,-0.025390625,-0.93310546875,0.46142578125
720,19.53125,2.50244140625,-2.5634765625,-0.021484375,-0.92529296875,0.46630859375
721,18.61572265625,2.62451171875,-2.197265625,-0.0205078125,-0.9169921875,0.4775390625
722,17.27294921875,3.11279296875,-1.89208984375,-0.0224609375,-0.91748046875,0.478515625
723,15.7470703125,3.2958984375,-1.46484375,-0.0224609375,-0.91259765625,0.48193359375
724,14.34326171875,3.47900390625,-1.03759765625,-0.0234375,-0.91552734375,0.4814453125
725,13.671875,3.72314453125,-0.8544921875,-0.0224609375,-0.91748046875,0.48193359375
726,12.939453125,4.08935546875,-0.54931640625,-0.01904296875,-0.90966796875,0.48388671875
727,12.6953125,4.7607421875,-0.30517578125,-0.02099609375,-0.92236328125,0.47607421875
728,13.48876953125,5.31005859375,-0.244140625,-0.021484375,-0.94384765625,0.4697265625
729,15.56396484375,6.28662109375,-0.8544921875,-0.0263671875,-0.9736328125,0.45166015625
730,18.9208984375,6.8359375,-1.64794921875,-0.029296875,-0.982421875,0.45458984375
731,21.8505859375,7.38525390625,-2.38037109375,-0.03271484375,-0.97119140625,0.46240234375
732,23.74267578125,7.01904296875,-2.86865234375,-0.03466796875,-0.947265625,0.4814453125
733,23.8037109375,6.04248046875,-3.0517578125,-0.0341796875,-0.9189453125,0.5068359375
734,21.30126953125,5.2490234375,-2.8076171875,-0.0341796875,-0.8974609375,0.52490234375
735,18.4326171875,4.08935546875,-2.3193359375,-0.0341796875,-0.89111328125,0.52734375
736,14.404296875,2.13623046875,-1.3427734375,-0.03369140625,-0.88037109375,0.53271484375
737,10.19287109375,0.732421875,-0.42724609375,-0.02783203125,-0.87451171875,0.53369140625
738,6.89697265625,0.244140625,0.1220703125,-0.0234375,-0.87548828125,0.529296875
739,5.126953125,0.18310546875,0.6103515625,-0.0234375,-0.87060546875,0.5185546875
740,4.21142578125,0.06103515625,1.220703125,-0.01904296875,-0.837890625,0.53076171875
741,2.25830078125,0.54931640625,1.708984375,-0.0166015625,-0.837890625,0.55126953125
742,-0.06103515625,1.89208984375,1.953125,-0.02685546875,-0.91162109375,0.5146484375
743,0.54931640625,2.50244140625,1.8310546875,-0.03125,-0.96044921875,0.4794921875
744,2.8076171875,2.38037109375,1.40380859375,-0.03466796875,-0.9560546875,0.48876953125
745,3.60107421875,1.89208984375,1.220703125,-0.0361328125,-0.935546875,0.50634765625
746,2.74658203125,1.03759765625,1.220703125,-0.0390625,-0.92822265625,0.51416015625
747,1.46484375,0.6103515625,1.03759765625,-0.04296875,-0.947265625,0.49462890625
748,1.708984375,-0.06103515625,0.3662109375,-0.0458984375,-0.94482421875,0.4951171875
749,2.685546875,-0.42724609375,-0.48828125,-0.0380859375,-0.9248046875,0.50439453125
750,3.47900390625,-0.42724609375,-0.9765625,-0.02587890625,-0.89794921875,0.52197265625
751,3.23486328125,0.30517578125,-1.220703125,-0.02783203125,-0.91259765625,0.5107421875
752,4.08935546875,0.8544921875,-1.5869140625,-0.03271484375,-0.94287109375,0.4873046875
753,6.77490234375,1.220703125,-2.0751953125,-0.02978515625,-0.955078125,0.4873046875
754,9.765625,1.46484375,-2.50244140625,-0.03125,-0.95849609375,0.48681640625
755,11.71875,0.8544921875,-2.3193359375,-0.02197265625,-0.9501953125,0.49853515625
756,13.3056640625,0.244140625,-1.3427734375,-0.01513671875,-0.98095703125,0.50146484375
757,15.869140625,0.06103515625,0.3662109375,-0.02978515625,-1.01025390625,0.4697265625
758,21.484375,-0.54931640625,0.91552734375,-0.03857421875,-1.01416015625,0.4580078125
759,29.541015625,-0.54931640625,0.67138671875,-0.0234375,-1.00927734375,0.46435546875
760,36.4990234375,0.06103515625,0.9765625,-0.0107421875,-0.9443359375,0.50927734375
761,38.4521484375,0.79345703125,2.01416015625,-0.02197265625,-0.8642578125,0.55615234375
762,35.46142578125,0.732421875,2.86865234375,-0.03271484375,-0.80419921875,0.59130859375
763,29.84619140625,0.732421875,2.685546875,-0.0458984375,-0.80322265625,0.59228515625
764,25.45166015625,0.06103515625,2.0751953125,-0.0361328125,-0.84912109375,0.564453125
765,23.92578125,-0.06103515625,2.3193359375,-0.0126953125,-0.85986328125,0.56689453125
766,23.0712890625,1.03759765625,2.86865234375,-0.017578125,-0.84130859375,0.583984375
767,19.95849609375,1.77001953125,3.2958984375,-0.03564453125,-0.8203125,0.6025390625
768,15.380859375,1.953125,3.0517578125,-0.0478515625,-0.81689453125,0.6083984375
769,11.53564453125,1.77001953125,2.197265625,-0.0595703125,-0.85205078125,0.583984375
770,10.68115234375,0.79345703125,1.40380859375,-0.037109375,-0.904296875,0.5546875
771,12.939453125,1.15966796875,1.15966796875,-0.0263671875,-0.89892578125,0.55517578125
772,14.34326171875,1.953125,0.79345703125,-0.04052734375,-0.8515625,0.5908203125
773,12.02392578125,2.38037109375,-0.18310546875,-0.05322265625,-0.81396484375,0.6142578125
774,7.75146484375,2.197265625,-1.46484375,-0.05224609375,-0.81201171875,0.61572265625
775,3.35693359375,1.89208984375,-2.5634765625,-0.048828125,-0.8212890625,0.61083984375
776,0.48828125,1.52587890625,-2.9296875,-0.044921875,-0.83935546875,0.595703125
777,-1.64794921875,0.91552734375,-3.0517578125,-0.03564453125,-0.86328125,0.58251953125
778,-2.5634765625,0.48828125,-2.8076171875,-0.03564453125,-0.88427734375,0.578125
779,-2.3193359375,0.30517578125,-2.685546875,-0.0439453125,-0.90234375,0.5654296875
780,-0.8544921875,-0.18310546875,-3.0517578125,-0.03515625,-0.9013671875,0.56787109375
781,0.42724609375,-0.06103515625,-3.11279296875,-0.02734375,-0.8984375,0.56396484375
782,1.46484375,0.30517578125,-2.685546875,-0.02880859375,-0.88330078125,0.57080078125
783,1.708984375,0.3662109375,-2.50244140625,-0.03662109375,-0.8759765625,0.5791015625
784,1.77001953125,0.1220703125,-2.44140625,-0.02978515625,-0.88427734375,0.5712890625
785,2.44140625,0.1220703125,-2.01416015625,-0.0244140625,-0.88330078125,0.57275390625
786,3.0517578125,0.18310546875,-1.708984375,-0.03076171875,-0.87255859375,0.576171875
787,3.23486328125,0.06103515625,-1.40380859375,-0.03125,-0.85546875,0.5869140625
788,2.0751953125,-0.06103515625,-1.220703125,-0.03662109375,-0.8466796875,0.59326171875
789,0.244140625,-0.48828125,-1.15966796875,-0.03515625,-0.83740234375,0.60009765625
790,-1.953125,-1.03759765625,-1.15966796875,-0.03369140625,-0.8388671875,0.59716796875
791,-3.60107421875,-0.9765625,-1.40380859375,-0.033203125,-0.845703125,0.58984375
792,-4.8828125,-0.6103515625,-1.52587890625,-0.02880859375,-0.85546875,0.587890625
793,-5.615234375,-0.3662109375,-1.64794921875,-0.03271484375,-0.86279296875,0.58056640625
794,-5.7373046875,0.06103515625,-2.44140625,-0.04345703125,-0.85986328125,0.5869140625
795,-6.40869140625,0.54931640625,-4.0283203125,-0.04052734375,-0.85400390625,0.5908203125
796,-7.6904296875,0.8544921875,-4.69970703125,-0.02392578125,-0.875,0.57568359375
797,-7.75146484375,1.15966796875,-4.69970703125,-0.0205078125,-0.880859375,0.56982421875
798,-7.14111328125,1.89208984375,-4.39453125,-0.02392578125,-0.8779296875,0.57275390625
799,-6.77490234375,2.38037109375,-4.08935546875,-0.02734375,-0.87841796875,0.57373046875
800,-6.65283203125,2.38037109375,-4.0283203125,-0.033203125,-0.86865234375,0.57666015625
801,-7.01904296875,2.5634765625,-4.82177734375,-0.0439453125,-0.87158203125,0.57470703125
802,-7.4462890625,2.5634765625,-6.28662109375,-0.03857421875,-0.87158203125,0.57861328125
803,-8.23974609375,2.25830078125,-6.7138671875,-0.01904296875,-0.88330078125,0.56787109375
804,-8.4228515625,2.25830078125,-5.9814453125,-0.017578125,-0.8818359375,0.56103515625
805,-8.23974609375,2.62451171875,-5.7373046875,-0.025390625,-0.8564453125,0.5732421875
806,-9.3994140625,3.0517578125,-6.103515625,-0.02880859375,-0.8310546875,0.587890625
807,-11.3525390625,3.11279296875,-6.40869140625,-0.03076171875,-0.8271484375,0.58837890625
808,-14.46533203125,2.685546875,-6.591796875,-0.02392578125,-0.828125,0.58740234375
809,-17.39501953125,2.44140625,-6.4697265625,-0.0205078125,-0.8525390625,0.5712890625
810,-19.04296875,2.25830078125,-6.16455078125,-0.02197265625,-0.8662109375,0.5673828125
811,-20.32470703125,1.708984375,-5.615234375,-0.01611328125,-0.875,0.56103515625
812,-21.54541015625,1.03759765625,-4.7607421875,-0.029296875,-0.88818359375,0.54931640625
813,-22.15576171875,0.244140625,-4.82177734375,-0.029296875,-0.888671875,0.55517578125
814,-23.3154296875,-1.03759765625,-4.45556640625,-0.02099609375,-0.9228515625,0.5302734375
815,-22.3388671875,-2.0751953125,-3.72314453125,-0.0087890625,-1.01220703125,0.49755859375
816,-16.54052734375,-3.35693359375,-1.89208984375,-0.0126953125,-1.0,0.48291015625
817,-13.0615234375,-3.662109375,-1.0986328125,-0.01953125,-0.96337890625,0.50048828125
818,-10.43701171875,-3.96728515625,-0.79345703125,-0.0244140625,-0.93359375,0.521484375
819,-9.58251953125,-4.45556640625,-0.3662109375,-0.02197265625,-0.908203125,0.53076171875
820,-10.07080078125,-5.31005859375,0.48828125,-0.02001953125,-0.892578125,0.53759765625
821,-11.474609375,-6.103515625,1.0986328125,-0.0185546875,-0.89306640625,0.53564453125
822,-12.451171875,-6.53076171875,1.5869140625,-0.0185546875,-0.90234375,0.52783203125
823,-12.939453125,-7.01904296875,2.13623046875,-0.015625,-0.90625,0.52294921875
824,-13.36669921875,-7.50732421875,2.685546875,-0.0166015625,-0.9091796875,0.51806640625
825,-13.36669921875,-7.568359375,3.11279296875,-0.015625,-0.9052734375,0.5185546875
826,-13.48876953125,-7.62939453125,3.47900390625,-0.0166015625,-0.900390625,0.521484375
827,-14.0380859375,-7.62939453125,3.72314453125,-0.0185546875,-0.9033203125,0.521484375
828,-14.5263671875,-7.38525390625,3.72314453125,-0.0224609375,-0.9189453125,0.50634765625
829,-13.916015625,-7.75146484375,3.47900390625,-0.01806640625,-0.9208984375,0.50390625
830,-13.671875,-8.056640625,3.662109375,-0.01708984375,-0.8994140625,0.51953125
831,-14.6484375,-8.36181640625,4.0283203125,-0.021484375,-0.84130859375,0.54638671875
832,-20.20263671875,-9.3994140625,5.18798828125,-0.009765625,-0.787109375,0.59912109375
833,-27.83203125,-6.9580078125,5.7373046875,-0.00830078125,-0.958984375,0.48291015625
834,-23.8037109375,-4.39453125,5.06591796875,-0.0234375,-1.08056640625,0.38525390625
835,-12.87841796875,-3.90625,3.2958984375,-0.015625,-1.015625,0.43310546875
836,-5.859375,-2.74658203125,1.77001953125,-0.01171875,-0.95166015625,0.474609375
837,-3.173828125,-1.8310546875,1.46484375,-0.01416015625,-0.931640625,0.482421875
838,-2.25830078125,-1.708984375,1.64794921875,-0.0107421875,-0.9326171875,0.48193359375
839,-0.732421875,-1.28173828125,1.8310546875,-0.01025390625,-0.923828125,0.4853515625
840,0.244140625,-0.91552734375,2.197265625,-0.013671875,-0.91162109375,0.49658203125
841,-0.244140625,-1.03759765625,2.62451171875,-0.0185546875,-0.90771484375,0.4990234375
842,-1.52587890625,-1.3427734375,3.0517578125,-0.02099609375,-0.91162109375,0.49951171875
843,-2.9296875,-1.953125,3.5400390625,-0.02392578125,-0.916015625,0.4990234375
844,-4.57763671875,-2.50244140625,3.90625,-0.021484375,-0.90869140625,0.50244140625
845,-6.591796875,-2.685546875,4.2724609375,-0.02001953125,-0.90283203125,0.5068359375
846,-8.6669921875,-2.62451171875,4.57763671875,-0.02294921875,-0.9189453125,0.48974609375
847,-9.3994140625,-2.44140625,4.69970703125,-0.0224609375,-0.93408203125,0.482421875
848,-9.09423828125,-2.01416015625,4.45556640625,-0.0234375,-0.9443359375,0.4716796875
849,-7.38525390625,-1.77001953125,4.0283203125,-0.02392578125,-0.9404296875,0.47607421875
850,-6.7138671875,-1.89208984375,3.72314453125,-0.025390625,-0.92822265625,0.48681640625
851,-7.38525390625,-1.708984375,3.7841796875,-0.02099609375,-0.91552734375,0.490234375
852,-8.6669921875,-1.0986328125,3.84521484375,-0.0244140625,-0.91650390625,0.49609375
853,-10.19287109375,-0.54931640625,3.7841796875,-0.025390625,-0.9228515625,0.48681640625
854,-11.23046875,-0.244140625,3.72314453125,-0.0224609375,-0.9375,0.47265625
855,-10.55908203125,0.1220703125,3.72314453125,-0.02587890625,-0.9521484375,0.46142578125
856,-8.36181640625,0.244140625,3.41796875,-0.02490234375,-0.95849609375,0.4501953125
857,-5.31005859375,0.48828125,2.9296875,-0.0234375,-0.9541015625,0.45849609375
858,-3.47900390625,0.732421875,2.62451171875,-0.0244140625,-0.9462890625,0.46435546875
859,-2.13623046875,1.0986328125,2.25830078125,-0.0263671875,-0.93994140625,0.4716796875
860,-1.46484375,1.52587890625,2.01416015625,-0.02978515625,-0.94384765625,0.46923828125
861,-1.220703125,1.3427734375,1.89208984375,-0.03271484375,-0.94189453125,0.4716796875
862,-1.28173828125,1.03759765625,1.64794921875,-0.02880859375,-0.93310546875,0.474609375
863,-1.64794921875,1.3427734375,1.52587890625,-0.025390625,-0.91845703125,0.4794921875
864,-2.9296875,2.01416015625,1.77001953125,-0.02734375,-0.923828125,0.47705078125
865,-3.96728515625,2.01416015625,1.77001953125,-0.03759765625,-0.93798828125,0.47314453125
866,-3.7841796875,1.3427734375,1.220703125,-0.0322265625,-0.94287109375,0.466796875
867,-2.99072265625,1.0986328125,0.91552734375,-0.02880859375,-0.93798828125,0.474609375
868,-2.8076171875,0.9765625,0.79345703125,-0.02978515625,-0.9345703125,0.4755859375
869,-2.8076171875,1.03759765625,0.54931640625,-0.03076171875,-0.93115234375,0.474609375
870,-3.173828125,0.91552734375,0.42724609375,-0.03271484375,-0.93115234375,0.474609375
871,-3.96728515625,0.79345703125,0.30517578125,-0.033203125,-0.93212890625,0.47265625
872,-4.39453125,0.48828125,0.18310546875,-0.04296875,-0.9423828125,0.46533203125
873,-3.84521484375,-0.8544921875,-0.244140625,-0.04345703125,-0.94970703125,0.4609375
874,-2.99072265625,-2.13623046875,-0.79345703125,-0.033203125,-0.94580078125,0.46337890625
875,-2.99072265625,-1.953125,-1.0986328125,-0.0244140625,-0.9404296875,0.46728515625
876,-3.0517578125,-0.91552734375,-1.03759765625,-0.0234375,-0.93896484375,0.46435546875
877,-2.3193359375,-0.3662109375,-1.0986328125,-0.0263671875,-0.9453125,0.4541015625
878,-0.54931640625,-0.244140625,-1.28173828125,-0.02880859375,-0.9501953125,0.4541015625
879,1.0986328125,-0.42724609375,-1.40380859375,-0.03076171875,-0.94921875,0.455078125
880,3.11279296875,-0.67138671875,-1.64794921875,-0.02783203125,-0.94189453125,0.46142578125
881,3.173828125,-0.18310546875,-1.953125,-0.0341796875,-0.93701171875,0.4736328125
882,2.0751953125,0.54931640625,-2.685546875,-0.033203125,-0.9501953125,0.45751953125
883,3.11279296875,0.18310546875,-2.99072265625,-0.02880859375,-0.9462890625,0.4580078125
884,4.150390625,-0.244140625,-2.99072265625,-0.02734375,-0.93408203125,0.4697265625
885,4.150390625,-0.3662109375,-2.86865234375,-0.02685546875,-0.92919921875,0.47265625
886,4.0283203125,-0.67138671875,-2.62451171875,-0.02783203125,-0.927734375,0.47509765625
887,3.84521484375,-0.79345703125,-2.74658203125,-0.03369140625,-0.93017578125,0.47314453125
888,3.41796875,-0.79345703125,-3.0517578125,-0.02880859375,-0.931640625,0.4765625
889,2.9296875,-0.732421875,-3.11279296875,-0.02490234375,-0.93115234375,0.474609375
890,2.9296875,-0.48828125,-3.35693359375,-0.0224609375,-0.92333984375,0.46875
891,1.8310546875,-0.244140625,-2.99072265625,-0.02587890625,-0.9267578125,0.4814453125
892,2.44140625,0.0,-2.8076171875,-0.02197265625,-0.92919921875,0.474609375
893,2.50244140625,0.3662109375,-2.5634765625,-0.0205078125,-0.9267578125,0.47119140625
894,2.3193359375,0.30517578125,-2.197265625,-0.02294921875,-0.9248046875,0.4755859375
895,3.2958984375,0.1220703125,-2.197265625,-0.0244140625,-0.92578125,0.4794921875
896,2.13623046875,0.244140625,-2.13623046875,-0.03125,-0.94091796875,0.47607421875
897,1.46484375,0.67138671875,-2.62451171875,-0.02587890625,-0.9501953125,0.46484375
898,1.89208984375,0.6103515625,-2.74658203125,-0.02001953125,-0.9306640625,0.47607421875
899,1.52587890625,0.67138671875,-2.50244140625,-0.021484375,-0.91455078125,0.4833984375
900,0.54931640625,0.8544921875,-2.01416015625,-0.01953125,-0.9111328125,0.48486328125
901,0.06103515625,0.91552734375,-1.5869140625,-0.01806640625,-0.9208984375,0.47509765625
902,0.3662109375,0.79345703125,-1.28173828125,-0.01708984375,-0.9267578125,0.470703125
903,1.15966796875,0.8544921875,-0.9765625,-0.01513671875,-0.92529296875,0.47509765625
904,2.50244140625,0.91552734375,-0.67138671875,-0.01953125,-0.92822265625,0.47216796875
905,2.86865234375,0.54931640625,-0.3662109375,-0.02294921875,-0.93115234375,0.47265625
906,2.86865234375,0.67138671875,-0.1220703125,-0.021484375,-0.93359375,0.47119140625
907,3.90625,0.91552734375,-0.30517578125,-0.0224609375,-0.923828125,0.47998046875
908,2.86865234375,0.67138671875,-0.06103515625,-0.02099609375,-0.92041015625,0.49072265625
909,2.685546875,0.91552734375,-0.06103515625,-0.02294921875,-0.91943359375,0.48388671875
910,1.708984375,0.9765625,0.06103515625,-0.02880859375,-0.93212890625,0.4794921875
911,1.3427734375,0.9765625,-0.18310546875,-0.0283203125,-0.94482421875,0.470703125
912,1.89208984375,0.9765625,-0.732421875,-0.0224609375,-0.92822265625,0.4814453125
913,1.15966796875,0.8544921875,-0.48828125,-0.0244140625,-0.9208984375,0.48779296875
914,0.48828125,0.91552734375,-0.42724609375,-0.02392578125,-0.93115234375,0.47900390625
915,0.6103515625,1.220703125,-0.54931640625,-0.0234375,-0.9404296875,0.47509765625
916,1.77001953125,1.52587890625,-0.732421875,-0.025390625,-0.93408203125,0.47021484375
917,2.44140625,1.15966796875,-0.67138671875,-0.0234375,-0.93310546875,0.4765625
918,2.86865234375,0.8544921875,-0.54931640625,-0.02099609375,-0.92919921875,0.4814453125
919,3.2958984375,0.8544921875,-0.42724609375,-0.02490234375,-0.92041015625,0.47900390625
920,2.9296875,0.3662109375,-0.18310546875,-0.02392578125,-0.9267578125,0.48828125
921,3.0517578125,0.6103515625,-0.3662109375,-0.029296875,-0.9326171875,0.48095703125
922,2.50244140625,-0.06103515625,-0.30517578125,-0.025390625,-0.92822265625,0.484375
923,2.0751953125,0.1220703125,-0.30517578125,-0.021484375,-0.92138671875,0.490234375
924,1.8310546875,0.48828125,-0.244140625,-0.02294921875,-0.9169921875,0.48291015625
925,0.9765625,0.06103515625,0.30517578125,-0.02001953125,-0.91748046875,0.48486328125
926,1.0986328125,0.30517578125,0.42724609375,-0.0244140625,-0.9208984375,0.4833984375
927,1.3427734375,0.0,0.48828125,-0.02490234375,-0.92138671875,0.48291015625
928,1.3427734375,-0.30517578125,0.732421875,-0.0244140625,-0.92724609375,0.484375
929,1.89208984375,-0.18310546875,0.54931640625,-0.02783203125,-0.9287109375,0.48193359375
930,1.64794921875,-0.54931640625,0.54931640625,-0.02392578125,-0.92919921875,0.48486328125
931,1.28173828125,0.0,0.42724609375,-0.025390625,-0.9326171875,0.48876953125
932,0.79345703125,1.0986328125,0.06103515625,-0.0283203125,-0.9345703125,0.47998046875
933,0.42724609375,0.732421875,0.0,-0.02685546875,-0.9326171875,0.48095703125
934,0.3662109375,0.79345703125,-0.1220703125,-0.03076171875,-0.935546875,0.48291015625
935,0.06103515625,1.15966796875,-0.42724609375,-0.03076171875,-0.9365234375,0.48388671875
936,-0.54931640625,1.28173828125,-0.732421875,-0.0283203125,-0.93701171875,0.48193359375
937,-0.732421875,1.46484375,-1.0986328125,-0.02880859375,-0.93212890625,0.48388671875
938,-0.91552734375,1.52587890625,-1.220703125,-0.02734375,-0.9326171875,0.4853515625
939,-0.79345703125,1.5869140625,-1.46484375,-0.02734375,-0.93359375,0.48193359375
940,-0.6103515625,1.46484375,-1.52587890625,-0.029296875,-0.93603515625,0.4814453125
941,-0.48828125,1.3427734375,-1.89208984375,-0.03466796875,-0.94482421875,0.4814453125
942,-0.42724609375,1.40380859375,-2.685546875,-0.02880859375,-0.94287109375,0.4814453125
943,-0.67138671875,1.64794921875,-2.9296875,-0.02197265625,-0.93310546875,0.4794921875
944,-0.732421875,1.64794921875,-2.86865234375,-0.02392578125,-0.92236328125,0.48681640625
945,-0.8544921875,1.46484375,-2.74658203125,-0.021484375,-0.92138671875,0.48291015625
946,-0.54931640625,1.40380859375,-2.5634765625,-0.0205078125,-0.919921875,0.4794921875
947,-0.3662109375,1.15966796875,-2.25830078125,-0.02099609375,-0.919921875,0.48291015625
948,0.244140625,1.0986328125,-1.89208984375,-0.01318359375,-0.91259765625,0.48193359375
949,0.91552734375,0.9765625,-1.3427734375,-0.01611328125,-0.91015625,0.4853515625
950,1.52587890625,0.6103515625,-0.67138671875,-0.0224609375,-0.91650390625,0.48486328125
951,1.8310546875,0.244140625,-0.48828125,-0.02685546875,-0.9296875,0.4833984375
952,2.8076171875,0.06103515625,-0.732421875,-0.0283203125,-0.9375,0.47265625
953,3.35693359375,-0.18310546875,-0.79345703125,-0.02294921875,-0.927734375,0.4833984375
954,3.0517578125,0.06103515625,-0.79345703125,-0.025390625,-0.9267578125,0.4921875
955,2.38037109375,0.42724609375,-1.0986328125,-0.02099609375,-0.9296875,0.48486328125
956,1.953125,0.91552734375,-1.15966796875,-0.02001953125,-0.92138671875,0.4853515625
957,1.46484375,1.220703125,-1.03759765625,-0.0244140625,-0.92041015625,0.48828125
958,1.15966796875,1.03759765625,-0.8544921875,-0.0234375,-0.91845703125,0.48974609375
959,1.03759765625,0.8544921875,-0.6103515625,-0.0224609375,-0.91650390625,0.4931640625
960,0.9765625,0.67138671875,-0.42724609375,-0.02197265625,-0.92041015625,0.48828125
961,1.03759765625,0.67138671875,-0.3662109375,-0.0224609375,-0.92626953125,0.48486328125
962,1.46484375,0.6103515625,-0.30517578125,-0.0244140625,-0.9296875,0.482421875
963,2.3193359375,0.30517578125,-0.3662109375,-0.02734375,-0.9345703125,0.48388671875
964,3.41796875,0.18310546875,-0.79345703125,-0.02392578125,-0.9287109375,0.4814453125
965,3.23486328125,-0.30517578125,-0.42724609375,-0.02001953125,-0.92041015625,0.49365234375
966,3.662109375,0.18310546875,-0.48828125,-0.02197265625,-0.912109375,0.4912109375
967,3.2958984375,-0.18310546875,-0.06103515625,-0.01806640625,-0.91455078125,0.49462890625
968,3.173828125,-0.244140625,0.244140625,-0.0205078125,-0.91259765625,0.49755859375
969,2.99072265625,-0.30517578125,0.30517578125,-0.02294921875,-0.908203125,0.4951171875
970,2.197265625,-0.91552734375,0.67138671875,-0.01953125,-0.90478515625,0.501953125
971,1.708984375,-1.0986328125,0.91552734375,-0.02392578125,-0.90625,0.4970703125
972,0.67138671875,-1.64794921875,1.40380859375,-0.01953125,-0.90185546875,0.49755859375
973,-0.30517578125,-1.8310546875,1.77001953125,-0.01904296875,-0.90380859375,0.50341796875
974,-1.03759765625,-1.708984375,2.197265625,-0.021484375,-0.90380859375,0.50146484375
975,-2.01416015625,-1.8310546875,2.62451171875,-0.01611328125,-0.892578125,0.5078125
976,-3.11279296875,-0.9765625,2.9296875,-0.01025390625,-0.888671875,0.509765625
977,-4.39453125,1.15966796875,3.11279296875,-0.02587890625,-0.94384765625,0.48779296875
978,-4.5166015625,2.38037109375,2.5634765625,-0.06201171875,-0.9853515625,0.46142578125
979,-2.86865234375,0.48828125,1.0986328125,-0.03955078125,-0.97900390625,0.46435546875
980,-1.220703125,0.0,0.42724609375,-0.02197265625,-0.9423828125,0.48095703125
981,-1.46484375,0.18310546875,0.732421875,-0.02587890625,-0.927734375,0.49267578125
982,-2.50244140625,0.3662109375,0.79345703125,-0.03125,-0.93994140625,0.4853515625
983,-1.5869140625,0.18310546875,0.42724609375,-0.03173828125,-0.94921875,0.47216796875
984,0.67138671875,-0.06103515625,0.0,-0.0322265625,-0.9453125,0.47021484375
985,2.62451171875,-0.30517578125,-0.42724609375,-0.02978515625,-0.93994140625,0.48046875
986,3.72314453125,-0.6103515625,-0.8544921875,-0.02783203125,-0.93115234375,0.48974609375
987,3.90625,-0.42724609375,-1.3427734375,-0.02880859375,-0.9296875,0.490234375
988,3.47900390625,-0.1220703125,-1.5869140625,-0.02734375,-0.92529296875,0.49267578125
989,3.11279296875,0.0,-1.77001953125,-0.025390625,-0.92529296875,0.48828125
990,3.173828125,-0.1220703125,-1.953125,-0.025390625,-0.92529296875,0.48876953125
991,3.35693359375,0.0,-2.01416015625,-0.0244140625,-0.92041015625,0.49462890625
992,3.35693359375,0.06103515625,-1.953125,-0.0244140625,-0.92041015625,0.49267578125
993,3.11279296875,0.18310546875,-1.89208984375,-0.0224609375,-0.91943359375,0.4951171875
994,2.9296875,0.42724609375,-1.708984375,-0.01953125,-0.91943359375,0.4951171875
995,2.99072265625,0.54931640625,-1.5869140625,-0.02001953125,-0.91259765625,0.494140625
996,2.685546875,0.6103515625,-1.28173828125,-0.02001953125,-0.90869140625,0.50439453125
997,1.953125,0.8544921875,-0.8544921875,-0.021484375,-0.90966796875,0.50439453125
998,0.79345703125,1.03759765625,-0.3662109375,-0.0224609375,-0.90673828125,0.5048828125
999,-0.244140625,1.40380859375,0.06103515625,-0.02392578125,-0.9140625,0.5
1000,-0.8544921875,1.52587890625,0.244140625,-0.02294921875,-0.91748046875,0.5
1001,-1.52587890625,1.89208984375,0.3662109375,-0.02001953125,-0.9189453125,0.49951171875
1002,-1.8310546875,2.25830078125,0.48828125,-0.02978515625,-0.9306640625,0.48779296875
1003,-1.52587890625,1.46484375,0.0,-0.064453125,-0.96630859375,0.47607421875
1004,-0.732421875,-0.48828125,-1.77001953125,-0.03759765625,-0.96435546875,0.47900390625
1005,1.28173828125,-0.42724609375,-2.685546875,-0.01953125,-0.94482421875,0.47900390625
1006,2.01416015625,-0.244140625,-2.50244140625,-0.033203125,-0.94970703125,0.48876953125
1007,1.953125,-0.06103515625,-3.0517578125,-0.0341796875,-0.95703125,0.4833984375
1008,2.685546875,-0.1220703125,-3.60107421875,-0.03076171875,-0.94091796875,0.4970703125
1009,2.62451171875,-0.54931640625,-4.21142578125,-0.0283203125,-0.919921875,0.50146484375
1010,1.77001953125,-1.40380859375,-4.21142578125,-0.02392578125,-0.93017578125,0.48681640625
1011,1.52587890625,-2.0751953125,-4.150390625,-0.033203125,-0.96240234375,0.4814453125
1012,1.0986328125,-2.685546875,-4.45556640625,-0.03466796875,-0.9326171875,0.51416015625
1013,-1.8310546875,-3.23486328125,-4.94384765625,-0.03857421875,-0.9453125,0.52880859375
1014,-4.94384765625,-2.74658203125,-5.67626953125,-0.03125,-0.9111328125,0.5322265625
1015,-8.72802734375,-2.25830078125,-6.2255859375,-0.0263671875,-0.92138671875,0.52294921875
1016,-12.20703125,-1.03759765625,-6.89697265625,-0.029296875,-0.9775390625,0.49755859375
1017,-13.671875,0.54931640625,-7.75146484375,-0.01611328125,-0.97705078125,0.47216796875
1018,-14.2822265625,2.62451171875,-8.544921875,0.0107421875,-0.96240234375,0.43701171875
1019,-14.892578125,5.126953125,-8.7890625,-0.0439453125,-1.00732421875,0.5
1020,-14.22119140625,5.43212890625,-10.3759765625,0.072265625,-0.8564453125,0.36865234375
1021,-19.47021484375,7.9345703125,-12.20703125,-0.18994140625,-1.2197265625,0.65869140625
1022,1.40380859375,2.50244140625,-16.17431640625,-0.0771484375,-0.96875,0.56787109375
1023,-0.18310546875,0.42724609375,-17.822265625,0.0810546875,-0.8076171875,0.41455078125
1024,-13.85498046875,5.126953125,-18.6767578125,0.009765625,-0.93017578125,0.4765625
1025,-11.962890625,3.173828125,-17.15087890625,-0.04931640625,-0.93212890625,0.5390625
1026,-9.3994140625,-1.40380859375,-17.02880859375,-0.02978515625,-0.86328125,0.5556640625
1027,-11.5966796875,-3.23486328125,-17.76123046875,-0.00341796875,-0.837890625,0.5380859375
1028,-15.68603515625,-3.84521484375,-16.357421875,0.02587890625,-0.84033203125,0.5244140625
1029,-18.798828125,-3.2958984375,-13.916015625,0.0126953125,-0.8388671875,0.51025390625
1030,-19.1650390625,-3.60107421875,-11.53564453125,0.00634765625,-0.84375,0.48779296875
1031,-18.00537109375,-4.39453125,-9.3994140625,0.02197265625,-0.85986328125,0.44873046875
1032,-15.56396484375,-5.126953125,-7.62939453125,0.03271484375,-0.88037109375,0.39501953125
1033,-13.12255859375,-6.103515625,-6.7138671875,0.02734375,-0.89990234375,0.37353515625
1034,-9.94873046875,-6.591796875,-7.14111328125,0.02783203125,-0.9599609375,0.37646484375
1035,-5.2490234375,-6.04248046875,-7.62939453125,0.05029296875,-0.95849609375,0.373046875
1036,-0.79345703125,-5.18798828125,-6.4697265625,0.07080078125,-0.91748046875,0.38623046875
1037,2.0751953125,-3.60107421875,-4.5166015625,0.07080078125,-0.90478515625,0.3876953125
1038,2.62451171875,-2.01416015625,-1.708984375,0.0546875,-0.9248046875,0.412109375
1039,5.55419921875,-0.79345703125,-0.06103515625,0.0341796875,-0.94580078125,0.41650390625
1040,8.36181640625,0.8544921875,0.244140625,0.0419921875,-0.9345703125,0.4189453125
1041,9.33837890625,2.38037109375,1.28173828125,0.0537109375,-0.9306640625,0.4228515625
1042,11.53564453125,3.47900390625,2.9296875,0.05224609375,-0.9208984375,0.419921875
1043,12.63427734375,4.33349609375,4.150390625,0.0390625,-0.921875,0.42724609375
1044,12.8173828125,4.94384765625,5.06591796875,0.00732421875,-0.951171875,0.45361328125
1045,15.0146484375,4.82177734375,4.08935546875,-0.00927734375,-1.00341796875,0.46484375
1046,15.93017578125,5.859375,1.8310546875,-0.021484375,-1.048828125,0.45556640625
1047,18.73779296875,6.77490234375,-0.9765625,0.00048828125,-1.01318359375,0.453125
1048,19.53125,7.75146484375,-2.5634765625,0.0205078125,-0.95703125,0.466796875
1049,18.06640625,8.30078125,-2.44140625,0.0146484375,-0.9267578125,0.494140625
1050,16.05224609375,7.9345703125,-2.0751953125,-0.0048828125,-0.92578125,0.5234375
1051,14.22119140625,6.9580078125,-2.5634765625,-0.00927734375,-0.93896484375,0.5224609375
1052,12.26806640625,6.4697265625,-3.72314453125,-0.00390625,-0.93505859375,0.5126953125
1053,10.25390625,6.40869140625,-4.57763671875,-0.0009765625,-0.9150390625,0.51513671875
1054,7.01904296875,5.7373046875,-5.2490234375,-0.0087890625,-0.8974609375,0.53125
1055,4.82177734375,4.08935546875,-5.18798828125,-0.01513671875,-0.88720703125,0.54052734375
1056,3.5400390625,2.0751953125,-4.8828125,-0.0087890625,-0.87744140625,0.53515625
1057,2.74658203125,0.42724609375,-4.150390625,0.0009765625,-0.86865234375,0.5146484375
1058,3.60107421875,-1.15966796875,-3.72314453125,0.00048828125,-0.88671875,0.51171875
1059,3.84521484375,-2.99072265625,-3.47900390625,0.0009765625,-0.91552734375,0.50341796875
1060,3.96728515625,-4.0283203125,-3.60107421875,0.0107421875,-0.90380859375,0.49755859375
1061,3.2958984375,-4.08935546875,-3.7841796875,0.013671875,-0.89599609375,0.505859375
1062,3.23486328125,-4.33349609375,-3.2958984375,0.02734375,-0.89208984375,0.49072265625
1063,3.173828125,-4.45556640625,-2.197265625,0.04443359375,-0.88720703125,0.478515625
1064,2.62451171875,-3.7841796875,-1.28173828125,0.04248046875,-0.90576171875,0.4736328125
1065,2.9296875,-2.62451171875,-0.3662109375,0.03173828125,-0.923828125,0.4697265625
1066,4.0283203125,-1.46484375,-0.06103515625,0.0361328125,-0.9326171875,0.4619140625
1067,5.4931640625,-0.18310546875,0.48828125,0.048828125,-0.93408203125,0.44873046875
1068,7.080078125,1.03759765625,1.5869140625,0.0458984375,-0.935546875,0.4521484375
1069,9.09423828125,2.3193359375,2.44140625,0.03857421875,-0.91162109375,0.46435546875
1070,10.6201171875,2.86865234375,3.35693359375,0.0361328125,-0.88134765625,0.47314453125
1071,11.16943359375,2.86865234375,4.33349609375,0.02978515625,-0.86767578125,0.4951171875
1072,11.04736328125,2.62451171875,5.7373046875,0.0234375,-0.87255859375,0.5126953125
1073,9.6435546875,2.44140625,6.9580078125,0.013671875,-0.876953125,0.5322265625
1074,8.1787109375,2.197265625,7.50732421875,0.00537109375,-0.88720703125,0.5380859375
1075,5.615234375,1.708984375,8.056640625,0.0,-0.91357421875,0.54345703125
1076,3.5400390625,1.220703125,7.9345703125,-0.01171875,-0.95068359375,0.54052734375
1077,2.8076171875,1.0986328125,7.01904296875,-0.009765625,-0.96435546875,0.5263671875
1078,2.38037109375,1.3427734375,5.79833984375,-0.00830078125,-0.97314453125,0.521484375
1079,2.38037109375,2.0751953125,4.45556640625,-0.0087890625,-0.97412109375,0.51611328125
1080,2.50244140625,2.50244140625,2.9296875,-0.02294921875,-0.96826171875,0.52783203125
1081,2.44140625,2.13623046875,0.9765625,-0.037109375,-0.99560546875,0.54296875
1082,3.60107421875,1.46484375,-1.40380859375,-0.02197265625,-0.9921875,0.5166015625
1083,3.84521484375,0.91552734375,-3.47900390625,-0.0263671875,-0.97509765625,0.53173828125
1084,3.84521484375,0.06103515625,-4.8828125,-0.03466796875,-0.9580078125,0.5625
1085,2.8076171875,-1.708984375,-6.89697265625,-0.03564453125,-0.9443359375,0.56982421875
1086,1.0986328125,-3.60107421875,-8.72802734375,-0.02587890625,-0.9501953125,0.55126953125
1087,0.0,-5.31005859375,-10.25390625,-0.0244140625,-0.95703125,0.5439453125
1088,-0.67138671875,-6.4697265625,-12.0849609375,-0.0224609375,-0.96484375,0.5458984375
1089,-1.220703125,-8.056640625,-13.61083984375,-0.0283203125,-0.98974609375,0.5439453125
1090,-0.3662109375,-10.19287109375,-15.31982421875,-0.02978515625,-1.01904296875,0.548828125
1091,1.708984375,-11.65771484375,-17.9443359375,-0.029296875,-1.03271484375,0.54931640625
1092,1.40380859375,-13.18359375,-21.728515625,-0.0166015625,-1.03857421875,0.50634765625
1093,0.8544921875,-15.19775390625,-25.20751953125,-0.0068359375,-1.08544921875,0.51220703125
1094,1.708984375,-16.54052734375,-29.1748046875,0.01953125,-1.09375,0.4794921875
1095,0.54931640625,-16.6015625,-33.02001953125,0.03173828125,-1.09619140625,0.458984375
1096,-0.3662109375,-16.4794921875,-37.90283203125,0.01708984375,-1.1298828125,0.4814453125
1097,-2.50244140625,-15.56396484375,-44.921875,0.0615234375,-1.13037109375,0.43310546875
1098,-4.57763671875,-13.18359375,-50.84228515625,0.0751953125,-1.15576171875,0.46875
1099,-1.0986328125,-10.7421875,-54.8095703125,0.0302734375,-1.25927734375,0.5166015625
1100,7.50732421875,-11.04736328125,-58.7158203125,-0.0380859375,-1.27685546875,0.4853515625
1101,13.7939453125,-12.6953125,-64.88037109375,0.0166015625,-1.2431640625,0.4677734375
1102,18.73779296875,-11.474609375,-70.61767578125,0.00732421875,-1.3623046875,0.4814453125
1103,28.9306640625,-9.3994140625,-76.2939453125,-0.0048828125,-1.38623046875,0.4873046875
1104,36.92626953125,-6.89697265625,-80.2001953125,-0.046875,-1.24169921875,0.42529296875
1105,39.794921875,-2.8076171875,-78.0029296875,-0.15234375,-1.03759765625,0.279296875
1106,32.5927734375,4.21142578125,-64.27001953125,-0.40185546875,-0.9931640625,0.21484375
1107,25.2685546875,8.30078125,-53.955078125,-0.5908203125,-1.0634765625,0.2353515625
1108,26.0009765625,7.87353515625,-47.4853515625,-0.65185546875,-0.90185546875,0.19140625
1109,19.10400390625,8.056640625,-32.2265625,-0.7294921875,-0.85693359375,0.05224609375
1110,12.87841796875,9.09423828125,-15.80810546875,-0.8662109375,-0.93359375,0.04296875
1111,13.18359375,8.7890625,-7.8125,-0.90576171875,-0.79296875,-0.0322265625
1112,5.859375,9.8876953125,-1.15966796875,-0.9033203125,-0.64013671875,-0.10791015625
1113,-7.6904296875,13.671875,7.87353515625,-0.92041015625,-0.58349609375,-0.14501953125
1114,-21.42333984375,18.9208984375,20.32470703125,-0.94287109375,-0.5908203125,-0.13671875
1115,-29.1748046875,23.13232421875,30.70068359375,-0.947265625,-0.6064453125,-0.11474609375
1116,-37.4755859375,28.74755859375,43.45703125,-0.93701171875,-0.62451171875,-0.060546875
1117,-45.166015625,33.50830078125,54.01611328125,-0.919921875,-0.66943359375,0.01220703125
1118,-51.94091796875,37.04833984375,62.56103515625,-0.89404296875,-0.720703125,0.095703125
1119,-58.16650390625,39.0625,70.6787109375,-0.85791015625,-0.77294921875,0.18310546875
1120,-63.232421875,39.794921875,80.810546875,-0.822265625,-0.84228515625,0.26708984375
1121,-66.650390625,39.12353515625,91.796875,-0.77978515625,-0.8896484375,0.34716796875
1122,-69.9462890625,36.92626953125,102.5390625,-0.73876953125,-0.9453125,0.4150390625
1123,-72.69287109375,32.89794921875,112.36572265625,-0.68798828125,-1.0009765625,0.47607421875
1124,-74.3408203125,27.64892578125,121.64306640625,-0.6376953125,-1.068359375,0.5166015625
1125,-74.27978515625,23.13232421875,127.99072265625,-0.59130859375,-1.1181640625,0.5458984375
1126,-73.2421875,17.08984375,134.94873046875,-0.5283203125,-1.16796875,0.56787109375
1127,-71.8994140625,11.23046875,140.0146484375,-0.47607421875,-1.20361328125,0.5869140625
1128,-70.73974609375,5.37109375,142.822265625,-0.43115234375,-1.24462890625,0.61181640625
1129,-68.42041015625,-0.9765625,142.9443359375,-0.38916015625,-1.2900390625,0.6328125
1130,-63.90380859375,-8.1787109375,139.70947265625,-0.33935546875,-1.3251953125,0.650390625
1131,-59.6923828125,-14.46533203125,134.94873046875,-0.26416015625,-1.30908203125,0.6484375
1132,-58.10546875,-18.85986328125,133.4228515625,-0.1708984375,-1.27685546875,0.61669921875
1133,-58.349609375,-20.263671875,137.63427734375,-0.0791015625,-1.26025390625,0.57421875
1134,-58.837890625,-19.10400390625,145.3857421875,-0.0390625,-1.29833984375,0.54638671875
1135,-56.45751953125,-16.845703125,149.35302734375,-0.02001953125,-1.34765625,0.53271484375
1136,-52.79541015625,-15.31982421875,146.97265625,0.00830078125,-1.3515625,0.52490234375
1137,-48.15673828125,-13.0615234375,138.7939453125,0.07568359375,-1.3203125,0.501953125
1138,-44.7998046875,-9.46044921875,129.7607421875,0.138671875,-1.2783203125,0.4755859375
1139,-42.6025390625,-4.57763671875,122.1923828125,0.18359375,-1.2353515625,0.46142578125
1140,-40.771484375,0.67138671875,115.66162109375,0.20263671875,-1.220703125,0.45654296875
1141,-37.9638671875,5.7373046875,108.70361328125,0.216796875,-1.2236328125,0.45751953125
1142,-35.0341796875,10.68115234375,99.79248046875,0.240234375,-1.1689453125,0.4541015625
1143,-33.87451171875,15.68603515625,90.39306640625,0.28271484375,-1.10107421875,0.4443359375
1144,-33.87451171875,21.3623046875,82.33642578125,0.3251953125,-1.0595703125,0.443359375
1145,-32.77587890625,27.89306640625,76.23291015625,0.353515625,-1.0556640625,0.44482421875
1146,-30.45654296875,33.02001953125,71.71630859375,0.36572265625,-1.052734375,0.45068359375
1147,-26.06201171875,39.794921875,63.720703125,0.37255859375,-1.0478515625,0.4619140625
1148,-20.69091796875,45.2880859375,52.30712890625,0.37939453125,-1.05810546875,0.4560546875
1149,-13.85498046875,49.37744140625,38.87939453125,0.39111328125,-1.0439453125,0.42724609375
1150,-7.87353515625,52.42919921875,26.2451171875,0.4111328125,-0.99560546875,0.384765625
1151,-5.0048828125,55.23681640625,15.9912109375,0.421875,-0.9443359375,0.34228515625
1152,-5.06591796875,57.0068359375,6.53076171875,0.3984375,-0.93798828125,0.3359375
1153,-4.39453125,57.06787109375,-3.72314453125,0.37158203125,-0.95361328125,0.35009765625
1154,-1.708984375,55.23681640625,-13.48876953125,0.36474609375,-0.95458984375,0.3671875
1155,1.46484375,51.513671875,-21.1181640625,0.38232421875,-0.9423828125,0.39404296875
1156,3.5400390625,47.30224609375,-26.123046875,0.3984375,-0.9267578125,0.4169921875
1157,5.43212890625,39.48974609375,-32.77587890625,0.4345703125,-0.90625,0.451171875
1158,6.103515625,29.1748046875,-40.34423828125,0.474609375,-0.896484375,0.5009765625
1159,6.40869140625,16.4794921875,-48.7060546875,0.509765625,-0.90576171875,0.552734375
1160,7.62939453125,2.44140625,-57.67822265625,0.55419921875,-0.93310546875,0.6083984375
1161,9.8876953125,-12.14599609375,-66.40625,0.59521484375,-0.92041015625,0.6298828125
1162,11.53564453125,-25.93994140625,-72.3876953125,0.60693359375,-0.94482421875,0.61474609375
1163,14.404296875,-38.26904296875,-76.23291015625,0.5810546875,-0.98486328125,0.58642578125
1164,-60.302734375,57.6171875,-110.41259765625,-2.181640625,-3.05029296875,1.32470703125
1165,-72.75390625,158.5693359375,-146.240234375,-3.00439453125,-0.74658203125,-0.4375
1166,-2.25830078125,36.68212890625,-165.95458984375,-2.14013671875,-0.67041015625,-0.8125
1167,49.49951171875,-53.52783203125,-248.22998046875,-0.0859375,-0.79638671875,0.5537109375
1168,58.4716796875,-54.87060546875,-256.2255859375,0.79345703125,-0.78369140625,0.82373046875
1169,13.24462890625,-17.51708984375,-210.51025390625,0.275390625,-1.47119140625,0.267578125
1170,68.7255859375,-40.95458984375,-176.26953125,-0.130859375,-1.5634765625,0.427734375
1171,158.8134765625,-94.3603515625,-157.5927734375,0.11376953125,-1.154296875,0.4501953125
1172,192.138671875,-106.14013671875,-133.6669921875,0.3447265625,-1.02490234375,0.50634765625
1173,176.45263671875,-100.76904296875,-97.22900390625,0.43310546875,-1.00732421875,0.3935546875
1174,140.19775390625,-97.47314453125,-60.48583984375,0.22265625,-1.095703125,0.28125
1175,114.6240234375,-109.19189453125,-32.8369140625,0.05908203125,-1.0146484375,0.36669921875
1176,99.06005859375,-111.26708984375,-20.20263671875,0.14501953125,-0.85107421875,0.56982421875
1177,82.21435546875,-87.58544921875,-20.1416015625,0.14013671875,-0.77880859375,0.64111328125
1178,54.26025390625,-49.62158203125,-24.7802734375,0.06591796875,-0.90478515625,0.470703125
1179,41.1376953125,-44.00634765625,-18.00537109375,0.05615234375,-0.978515625,0.41845703125
1180,35.70556640625,-38.87939453125,-12.63427734375,0.107421875,-0.8876953125,0.5625
1181,27.89306640625,-18.9208984375,-12.451171875,0.0732421875,-0.84423828125,0.5732421875
1182,16.41845703125,-8.11767578125,-9.33837890625,0.0068359375,-0.91845703125,0.4755859375
1183,11.71875,-6.2255859375,-6.7138671875,-0.02099609375,-0.931640625,0.4716796875
1184,11.474609375,-5.7373046875,-6.53076171875,-0.087890625,-0.99169921875,0.41650390625
1185,12.51220703125,-12.5732421875,-7.080078125,-0.0732421875,-0.96240234375,0.45654296875
1186,9.82666015625,-18.24951171875,-6.53076171875,-0.03662109375,-0.900390625,0.4970703125
1187,5.06591796875,-20.01953125,-5.2490234375,-0.0146484375,-0.880859375,0.5126953125
1188,-1.220703125,-17.15087890625,-4.5166015625,0.00830078125,-0.9326171875,0.46826171875
1189,-1.953125,-12.87841796875,-4.08935546875,0.0087890625,-0.9521484375,0.453125
1190,-1.28173828125,-8.6669921875,-3.84521484375,0.0,-0.94140625,0.45849609375
1191,-1.03759765625,-5.67626953125,-3.60107421875,-0.0078125,-0.947265625,0.45361328125
1192,-0.42724609375,-3.7841796875,-3.60107421875,-0.00634765625,-0.95556640625,0.44482421875
1193,1.40380859375,-2.25830078125,-3.662109375,-0.0078125,-0.9599609375,0.44140625
1194,4.0283203125,-1.3427734375,-3.90625,-0.013671875,-0.95703125,0.44091796875
1195,6.16455078125,-0.79345703125,-4.39453125,-0.0126953125,-0.9462890625,0.45068359375
1196,6.53076171875,-0.42724609375,-4.82177734375,-0.0087890625,-0.9248046875,0.46875
1197,5.31005859375,0.1220703125,-4.8828125,-0.0068359375,-0.9072265625,0.48583984375
1198,2.62451171875,0.79345703125,-5.0048828125,-0.0078125,-0.90625,0.48681640625
1199,0.30517578125,1.708984375,-4.94384765625,-0.00927734375,-0.93701171875,0.46240234375
1200,0.48828125,2.50244140625,-5.18798828125,-0.01220703125,-0.9541015625,0.44873046875
1201,2.197265625,2.99072265625,-5.859375,-0.0126953125,-0.9609375,0.44970703125
1202,4.5166015625,4.21142578125,-7.2021484375,-0.01123046875,-0.99560546875,0.4365234375
1203,7.4462890625,6.34765625,-9.1552734375,-0.01318359375,-0.98486328125,0.4375
1204,9.70458984375,7.38525390625,-10.43701171875,-0.00830078125,-0.96337890625,0.4501953125
1205,11.90185546875,8.4228515625,-11.5966796875,-0.009765625,-0.98583984375,0.4326171875
1206,15.625,9.27734375,-13.3056640625,-0.0126953125,-1.00390625,0.427734375
1207,18.310546875,10.31494140625,-14.892578125,-0.00048828125,-0.9755859375,0.45068359375
1208,18.49365234375,11.53564453125,-15.68603515625,-0.00390625,-0.96484375,0.4619140625
1209,18.24951171875,11.962890625,-16.54052734375,-0.01953125,-0.98681640625,0.46484375
1210,20.08056640625,11.16943359375,-17.15087890625,-0.015625,-1.02392578125,0.45654296875
1211,22.3388671875,10.80322265625,-17.63916015625,-0.00244140625,-0.96923828125,0.45166015625
1212,23.01025390625,9.521484375,-18.00537109375,0.00048828125,-0.96728515625,0.46337890625
1213,24.169921875,9.58251953125,-19.34814453125,0.0009765625,-0.9638671875,0.45556640625
1214,26.06201171875,8.30078125,-20.08056640625,-0.00048828125,-0.99853515625,0.4501953125
1215,27.9541015625,7.50732421875,-21.1181640625,-0.015625,-1.01220703125,0.4677734375
1216,29.11376953125,5.92041015625,-23.3154296875,-0.03173828125,-1.02197265625,0.51171875
1217,27.83203125,4.5166015625,-27.34375,0.00439453125,-0.95947265625,0.45556640625
1218,23.193359375,2.685546875,-29.6630859375,0.01708984375,-0.966796875,0.44189453125
1219,16.66259765625,-0.30517578125,-32.3486328125,-0.08203125,-1.0888671875,0.59716796875
1220,13.671875,-2.74658203125,-40.22216796875,-0.10302734375,-1.09228515625,0.6494140625
1221,6.4697265625,-7.14111328125,-49.072265625,-0.18505859375,-1.25830078125,0.78076171875
1222,5.37109375,-11.65771484375,-57.4951171875,-0.17431640625,-1.17041015625,0.765625
1223,-0.732421875,-20.20263671875,-65.85693359375,-0.17919921875,-1.1279296875,0.798828125
1224,-6.40869140625,-29.78515625,-75.62255859375,-0.14404296875,-1.109375,0.7421875
1225,-18.310546875,-39.1845703125,-83.740234375,-0.14453125,-1.11962890625,0.7265625
1226,-25.57373046875,-49.62158203125,-90.9423828125,-0.193359375,-1.1669921875,0.80810546875
1227,-25.81787109375,-60.85205078125,-99.42626953125,-0.19873046875,-1.23095703125,0.83056640625
1228,-21.54541015625,-69.03076171875,-106.5673828125,-0.126953125,-1.19287109375,0.70703125
1229,-21.240234375,-77.880859375,-117.61474609375,-0.09912109375,-1.25,0.65380859375
1230,-15.0146484375,-84.53369140625,-128.662109375,-0.13720703125,-1.31005859375,0.69140625
1231,-6.591796875,-90.27099609375,-141.4794921875,-0.14501953125,-1.36669921875,0.73046875
1232,5.31005859375,-98.44970703125,-156.18896484375,-0.22998046875,-1.564453125,0.7578125
1233,18.9208984375,-99.91455078125,-175.4150390625,-0.103515625,-1.59375,0.443359375
1234,21.97265625,-90.6982421875,-196.35009765625,0.025390625,-1.65380859375,0.21337890625
1235,20.99609375,-73.30322265625,-220.458984375,-0.025390625,-1.806640625,0.2197265625
1236,24.84130859375,-56.82373046875,-246.52099609375,-0.13037109375,-1.97705078125,0.2587890625
1237,32.53173828125,-44.12841796875,-272.8271484375,-0.12353515625,-2.05712890625,0.2783203125
1238,38.51318359375,-36.7431640625,-291.93115234375,-0.068359375,-2.18408203125,0.32177734375
1239,55.23681640625,-30.6396484375,-312.98828125,0.00927734375,-2.42822265625,0.630859375
1240,81.97021484375,-36.07177734375,-328.91845703125,0.06396484375,-2.35888671875,0.49658203125
1241,90.9423828125,-36.2548828125,-350.7080078125,-0.06494140625,-2.35888671875,0.45947265625
1242,95.0927734375,-37.78076171875,-377.01416015625,-0.11962890625,-2.4189453125,0.5625
1243,98.20556640625,-39.9169921875,-396.484375,-0.4130859375,-2.29150390625,0.47998046875
1244,112.97607421875,-38.39111328125,-411.9873046875,-0.8369140625,-2.4931640625,0.4814453125
1245,156.43310546875,-45.166015625,-425.35400390625,-1.08349609375,-2.41552734375,-0.1328125
1246,182.6171875,-65.24658203125,-427.18505859375,-0.78369140625,-1.40673828125,-0.861328125
1247,121.15478515625,-40.71044921875,-413.87939453125,-0.20458984375,0.34375,-0.74560546875
1248,-37.841796875,-3.0517578125,-361.81640625,0.10888671875,0.27001953125,0.017578125
1249,-92.34619140625,0.67138671875,-289.1845703125,0.14111328125,-0.00537109375,0.240234375
1250,-87.646484375,-10.92529296875,-103.33251953125,-0.720703125,0.1123046875,-0.19384765625
1251,-66.5283203125,-54.6875,106.5673828125,-1.07861328125,-1.04296875,-0.2275390625
1252,49.072265625,-106.01806640625,249.3896484375,-0.53515625,-1.68603515625,-0.12158203125
1253,128.5400390625,-105.04150390625,307.9833984375,-0.35107421875,-1.05126953125,-0.17822265625
1254,108.70361328125,-80.38330078125,307.55615234375,-0.29150390625,-0.37890625,-0.31591796875
1255,42.17529296875,-52.6123046875,289.306640625,-0.2099609375,-0.1083984375,-0.48193359375
1256,-28.74755859375,-19.4091796875,273.193359375,-0.2314453125,-0.1748046875,-0.46923828125
1257,-80.2001953125,15.380859375,258.30078125,-0.2509765625,-0.48193359375,-0.36083984375
1258,-103.6376953125,49.37744140625,250.67138671875,-0.29931640625,-0.7685546875,-0.2822265625
1259,-104.67529296875,71.6552734375,252.685546875,-0.3642578125,-0.9267578125,-0.193359375
1260,-86.7919921875,93.56689453125,261.71875,-0.41748046875,-0.984375,-0.04833984375
1261,-64.0869140625,109.4970703125,272.0947265625,-0.38623046875,-0.86474609375,0.0390625
1262,-57.55615234375,125.244140625,280.8837890625,-0.33740234375,-0.70166015625,0.060546875
1263,-68.9697265625,140.5029296875,288.818359375,-0.35693359375,-0.62548828125,0.05810546875
1264,-88.92822265625,151.91650390625,293.45703125,-0.44091796875,-0.72607421875,0.091796875
1265,-106.4453125,157.2265625,290.0390625,-0.5185546875,-0.892578125,0.18017578125
1266,-116.943359375,156.67724609375,279.84619140625,-0.5537109375,-1.00390625,0.26806640625
1267,-125.244140625,152.587890625,269.4091796875,-0.5478515625,-1.0576171875,0.3515625
1268,-134.94873046875,146.240234375,264.2822265625,-0.55126953125,-1.0927734375,0.4130859375
1269,-143.49365234375,139.95361328125,265.2587890625,-0.564453125,-1.1708984375,0.46044921875
1270,-153.50341796875,129.82177734375,271.17919921875,-0.58935546875,-1.3310546875,0.55810546875
1271,-158.447265625,119.384765625,279.23583984375,-0.5654296875,-1.47314453125,0.61669921875
1272,-159.36279296875,110.41259765625,288.330078125,-0.5400390625,-1.64453125,0.669921875
1273,-158.0810546875,103.8818359375,295.2880859375,-0.5244140625,-1.82177734375,0.73779296875
1274,-155.6396484375,98.93798828125,297.42431640625,-0.4912109375,-1.99658203125,0.81201171875
1275,-154.1748046875,94.42138671875,295.10498046875,-0.44140625,-2.138671875,0.9169921875
1276,-154.541015625,87.158203125,290.771484375,-0.39453125,-2.271484375,1.01904296875
1277,-157.65380859375,74.8291015625,287.17041015625,-0.2900390625,-2.412109375,1.19091796875
1278,-161.1328125,56.33544921875,289.0625,-0.04931640625,-2.5,1.41455078125
1279,-160.82763671875,40.0390625,297.05810546875,0.26806640625,-2.58056640625,1.51513671875
1280,-148.25439453125,19.53125,315.91796875,0.80615234375,-2.7841796875,1.48046875
1281,-120.1171875,6.65283203125,332.275390625,1.28759765625,-3.04443359375,1.197265625
1282,-88.92822265625,6.53076171875,325.927734375,1.81787109375,-2.90966796875,0.9052734375
1283,-81.54296875,13.00048828125,285.94970703125,2.4345703125,-2.375,0.74755859375
1284,-109.375,27.587890625,213.8671875,3.22021484375,-1.48193359375,0.869140625
1285,-151.9775390625,37.353515625,136.3525390625,3.900390625,-1.04345703125,1.2841796875
1286,-159.85107421875,37.841796875,79.40673828125,4.16552734375,-1.21826171875,2.12744140625
1287,-105.46875,22.3388671875,36.376953125,3.8271484375,-1.623046875,2.63916015625
1288,-31.31103515625,-7.32421875,-12.02392578125,3.13818359375,-2.1015625,2.4404296875
1289,55.84716796875,-44.12841796875,-69.82421875,2.837890625,-2.0986328125,1.9638671875
1290,14.0380859375,13.427734375,-156.6162109375,2.505859375,-5.0537109375,2.89404296875
1291,-26.91650390625,231.689453125,-284.66796875,-0.4013671875,-0.7548828125,-0.7529296875
1292,-32.2265625,248.96240234375,-240.72265625,-2.66845703125,-1.9013671875,-1.9853515625
1293,168.45703125,-0.6103515625,-251.3427734375,-2.03076171875,-1.1826171875,0.02392578125
1294,261.77978515625,-137.14599609375,-298.2177734375,0.68603515625,-0.44189453125,1.103515625
1295,207.3974609375,-104.67529296875,-269.22607421875,0.724609375,-1.01123046875,1.220703125
1296,223.08349609375,-138.3056640625,-211.73095703125,0.1591796875,-1.43115234375,0.99853515625
1297,293.88427734375,-175.1708984375,-186.6455078125,0.4873046875,-1.15625,0.8603515625
1298,288.330078125,-151.18408203125,-158.3251953125,0.4873046875,-0.57275390625,0.62109375
1299,199.89013671875,-140.7470703125,-104.248046875,0.478515625,-1.166015625,0.162109375
1300,158.99658203125,-157.2265625,-54.38232421875,0.4873046875,-1.37109375,0.14697265625
1301,136.53564453125,-149.47509765625,-13.7939453125,0.2548828125,-0.7958984375,0.66650390625
1302,92.59033203125,-98.14453125,-20.81298828125,-0.0712890625,-0.59326171875,0.7685546875
1303,56.0302734375,-74.89013671875,-29.9072265625,0.1123046875,-1.017578125,0.322265625
1304,46.7529296875,-78.79638671875,-14.34326171875,0.17041015625,-1.0556640625,0.365234375
1305,39.48974609375,-62.255859375,-10.986328125,0.1142578125,-0.7958984375,0.56005859375
1306,22.64404296875,-35.46142578125,-13.671875,0.09375,-0.9560546875,0.46630859375
1307,21.78955078125,-27.40478515625,-11.77978515625,-0.0625,-1.03662109375,0.36669921875
1308,25.45166015625,-28.564453125,-11.29150390625,0.02197265625,-0.87890625,0.5048828125
1309,15.9912109375,-23.01025390625,-8.48388671875,-0.00390625,-0.95361328125,0.44384765625
1310,11.90185546875,-19.71435546875,-7.26318359375,-0.00927734375,-0.970703125,0.42626953125
1311,9.58251953125,-15.7470703125,-6.9580078125,-0.01123046875,-0.939453125,0.47802734375
1312,4.69970703125,-14.0380859375,-6.9580078125,-0.017578125,-0.91064453125,0.5146484375
1313,-5.615234375,-10.07080078125,-8.30078125,-0.03857421875,-0.98291015625,0.52490234375
1314,-13.671875,-1.46484375,-13.24462890625,-0.0498046875,-1.0087890625,0.5029296875
1315,-15.44189453125,0.06103515625,-17.15087890625,-0.005859375,-0.94970703125,0.4287109375
1316,-15.9912109375,0.3662109375,-17.51708984375,0.01318359375,-1.0048828125,0.3486328125
1317,-9.6435546875,-0.54931640625,-16.78466796875,-0.00537109375,-1.06884765625,0.34912109375
1318,-0.67138671875,-1.5869140625,-21.240234375,-0.08984375,-1.1845703125,0.42919921875
1319,8.97216796875,-2.9296875,-25.634765625,0.0615234375,-0.900390625,0.2919921875
1320,7.6904296875,-3.47900390625,-22.88818359375,-0.01904296875,-0.95849609375,0.44580078125
1321,7.14111328125,-5.4931640625,-25.32958984375,-0.06298828125,-1.03857421875,0.53857421875
1322,5.615234375,-4.150390625,-32.28759765625,0.01123046875,-1.0625,0.4033203125
1323,7.62939453125,-1.77001953125,-35.21728515625,-0.06396484375,-1.10107421875,0.54443359375
1324,15.07568359375,-3.84521484375,-41.44287109375,0.02490234375,-0.92578125,0.4638671875
1325,11.29150390625,-3.23486328125,-43.45703125,0.06396484375,-0.9453125,0.4189453125
1326,10.25390625,-0.67138671875,-42.1142578125,0.0146484375,-1.068359375,0.4404296875
1327,15.7470703125,0.30517578125,-42.1142578125,0.03955078125,-1.00537109375,0.3896484375
1328,15.80810546875,2.01416015625,-43.8232421875,0.06103515625,-1.0263671875,0.35791015625
1329,17.76123046875,4.2724609375,-44.43359375,0.0751953125,-0.99609375,0.3701171875
1330,18.24951171875,6.53076171875,-44.677734375,0.0810546875,-0.947265625,0.39599609375
1331,17.88330078125,7.4462890625,-44.25048828125,0.0830078125,-0.92333984375,0.41796875
1332,17.2119140625,7.6904296875,-43.3349609375,0.0751953125,-0.92041015625,0.4521484375
1333,14.0380859375,7.38525390625,-43.15185546875,0.0546875,-0.931640625,0.50048828125
1334,9.3994140625,6.34765625,-43.8232421875,0.03857421875,-0.9716796875,0.5478515625
1335,4.82177734375,4.82177734375,-45.7763671875,0.0244140625,-1.01513671875,0.5498046875
1336,0.67138671875,3.5400390625,-48.64501953125,0.02392578125,-1.01611328125,0.5380859375
1337,-4.39453125,0.30517578125,-51.94091796875,-0.00830078125,-1.03515625,0.58935546875
1338,-7.4462890625,-4.638671875,-56.09130859375,-0.01953125,-1.06396484375,0.615234375
1339,-11.04736328125,-10.55908203125,-61.03515625,-0.0419921875,-1.109375,0.6435546875
1340,-15.44189453125,-18.06640625,-67.19970703125,-0.048828125,-1.10888671875,0.66015625
1341,-20.44677734375,-24.2919921875,-72.509765625,-0.04248046875,-1.078125,0.67333984375
1342,-28.6865234375,-34.7900390625,-79.28466796875,-0.05126953125,-1.07470703125,0.69482421875
1343,-33.75244140625,-47.30224609375,-86.12060546875,-0.0732421875,-1.12060546875,0.6865234375
1344,-31.06689453125,-62.1337890625,-95.27587890625,-0.08447265625,-1.25537109375,0.6767578125
1345,-21.728515625,-74.76806640625,-106.62841796875,-0.08056640625,-1.39453125,0.609375
1346,-11.77978515625,-79.77294921875,-120.2392578125,-0.0302734375,-1.46044921875,0.48193359375
1347,-4.45556640625,-77.880859375,-136.04736328125,-0.00244140625,-1.55322265625,0.40966796875
1348,3.5400390625,-71.4111328125,-154.4189453125,-0.00244140625,-1.509765625,0.33251953125
1349,3.72314453125,-65.185546875,-175.35400390625,-0.0673828125,-1.59228515625,0.4326171875
1350,8.6669921875,-60.60791015625,-201.7822265625,-0.21484375,-1.845703125,0.48193359375
1351,14.70947265625,-55.2978515625,-224.54833984375,-0.2216796875,-1.9697265625,0.35107421875
1352,15.7470703125,-42.05322265625,-258.056640625,-0.16357421875,-2.00927734375,0.1416015625
1353,13.0615234375,-27.28271484375,-296.69189453125,-0.14892578125,-2.2802734375,0.24755859375
1354,20.93505859375,-13.00048828125,-339.4775390625,-0.275390625,-2.3876953125,0.283203125
1355,32.5927734375,-7.01904296875,-383.48388671875,0.07275390625,-2.8837890625,0.61474609375
1356,65.00244140625,-21.728515625,-403.86962890625,0.25146484375,-3.11669921875,0.6748046875
1357,88.5009765625,-37.65869140625,-411.92626953125,0.28857421875,-2.73193359375,0.533203125
1358,90.2099609375,-41.3818359375,-424.560546875,-0.05322265625,-2.69482421875,0.45703125
1359,98.93798828125,-40.71044921875,-441.0400390625,-0.45263671875,-2.91259765625,0.46728515625
1360,155.21240234375,-36.68212890625,-446.533203125,-0.97705078125,-3.189453125,-0.02880859375
1361,249.6337890625,-51.20849609375,-445.73974609375,-1.0263671875,-2.19287109375,-1.0419921875
1362,243.59130859375,-27.64892578125,-458.251953125,-0.30224609375,-0.32470703125,-1.4375
1363,39.00146484375,97.22900390625,-457.6416015625,0.52880859375,1.28076171875,-0.859375
1364,-188.78173828125,171.9970703125,-415.22216796875,0.4248046875,0.0478515625,0.2646484375
1365,-220.947265625,173.27880859375,-273.74267578125,-0.45751953125,0.109375,-0.025390625
1366,-246.88720703125,162.65869140625,-47.7294921875,-1.45166015625,-0.404296875,-0.29638671875
1367,-155.33447265625,90.75927734375,162.4755859375,-1.56494140625,-1.34423828125,0.00439453125
1368,14.5263671875,2.01416015625,305.23681640625,-0.84619140625,-1.52783203125,-0.1005859375
1369,112.6708984375,-18.98193359375,379.57763671875,-0.7314453125,-1.17724609375,-0.1435546875
1370,128.90625,-9.3994140625,390.80810546875,-0.671875,-0.52490234375,-0.015625
1371,81.54296875,1.52587890625,370.42236328125,-0.5361328125,-0.03369140625,-0.244140625
1372,15.7470703125,13.18359375,347.5341796875,-0.54833984375,0.08251953125,-0.419921875
1373,-66.10107421875,28.9306640625,312.56103515625,-0.4970703125,-0.09765625,-0.43017578125
1374,-127.197265625,50.59814453125,280.45654296875,-0.38427734375,-0.37890625,-0.3134765625
1375,-158.69140625,70.12939453125,270.56884765625,-0.42822265625,-0.6484375,-0.19775390625
1376,-155.94482421875,83.3740234375,286.7431640625,-0.59619140625,-0.84326171875,-0.03662109375
1377,-133.4228515625,88.0126953125,310.1806640625,-0.7060546875,-0.98974609375,0.1376953125
1378,-111.26708984375,88.7451171875,322.69287109375,-0.64111328125,-0.982421875,0.17919921875
1379,-102.84423828125,89.9658203125,323.42529296875,-0.5009765625,-0.84765625,0.13037109375
1380,-113.8916015625,95.5810546875,317.19970703125,-0.38916015625,-0.81884765625,0.10888671875
1381,-135.986328125,105.224609375,306.82373046875,-0.39013671875,-0.955078125,0.1533203125
1382,-150.146484375,111.14501953125,298.2177734375,-0.43212890625,-1.1171875,0.2158203125
1383,-159.912109375,115.05126953125,290.1611328125,-0.50390625,-1.2978515625,0.35009765625
1384,-161.68212890625,112.48779296875,289.6728515625,-0.57080078125,-1.44140625,0.48876953125
1385,-160.82763671875,105.52978515625,295.83740234375,-0.63232421875,-1.54150390625,0.63623046875
1386,-162.4755859375,96.19140625,305.35888671875,-0.65673828125,-1.6533203125,0.71337890625
1387,-164.24560546875,83.31298828125,315.97900390625,-0.630859375,-1.84130859375,0.73828125
1388,-165.22216796875,72.20458984375,323.73046875,-0.55126953125,-2.07861328125,0.77587890625
1389,-164.00146484375,64.697265625,326.66015625,-0.4619140625,-2.28564453125,0.8134765625
