n_samples,gyr_x,gyr_y,gyr_z,acc_x,acc_y,acc_z
0,-0.91552734375,-1.953125,0.3662109375,-0.2060546875,-1.0341796875,0.25732421875
1,-1.03759765625,-1.64794921875,0.54931640625,-0.20947265625,-1.03662109375,0.25830078125
2,-0.732421875,-1.5869140625,0.732421875,-0.20263671875,-1.029296875,0.25634765625
3,-1.28173828125,-1.40380859375,0.48828125,-0.20166015625,-1.03125,0.25390625
4,-0.9765625,-1.220703125,0.67138671875,-0.20849609375,-1.03759765625,0.25439453125
5,-0.48828125,-1.52587890625,0.67138671875,-0.20361328125,-1.03125,0.25146484375
6,-0.48828125,-1.0986328125,0.8544921875,-0.203125,-1.02880859375,0.24560546875
7,-0.6103515625,-0.8544921875,0.9765625,-0.20751953125,-1.03662109375,0.25439453125
8,-0.48828125,-0.54931640625,1.46484375,-0.19775390625,-1.0361328125,0.259765625
9,-1.03759765625,-0.67138671875,1.46484375,-0.20556640625,-1.04052734375,0.24755859375
10,-0.732421875,-0.30517578125,1.28173828125,-0.21484375,-1.0341796875,0.2548828125
11,-0.732421875,-0.6103515625,0.91552734375,-0.20556640625,-1.041015625,0.24267578125
12,-0.48828125,-0.244140625,0.732421875,-0.21142578125,-1.0380859375,0.2509765625
13,-0.3662109375,0.18310546875,1.220703125,-0.208984375,-1.0361328125,0.251953125
14,-0.244140625,0.244140625,0.91552734375,-0.20751953125,-1.03173828125,0.24853515625
15,0.48828125,0.79345703125,0.8544921875,-0.208984375,-1.03564453125,0.24609375
16,0.67138671875,0.732421875,0.6103515625,-0.2021484375,-1.04248046875,0.25048828125
17,0.732421875,0.9765625,0.8544921875,-0.19873046875,-1.04150390625,0.24560546875
18,0.67138671875,1.03759765625,0.6103515625,-0.2080078125,-1.02978515625,0.2529296875
19,-0.244140625,1.03759765625,0.732421875,-0.2060546875,-1.03076171875,0.2509765625
20,-0.244140625,1.0986328125,0.79345703125,-0.20654296875,-1.0361328125,0.2490234375
21,-0.18310546875,0.8544921875,0.9765625,-0.20654296875,-1.03271484375,0.251953125
22,-0.3662109375,0.732421875,0.6103515625,-0.20654296875,-1.03125,0.25
23,-0.18310546875,0.8544921875,0.18310546875,-0.2060546875,-1.03759765625,0.2490234375
24,-0.18310546875,1.15966796875,0.8544921875,-0.20458984375,-1.0341796875,0.2421875
25,-0.30517578125,0.6103515625,0.91552734375,-0.20263671875,-1.0380859375,0.24951171875
26,0.0,0.30517578125,0.3662109375,-0.2099609375,-1.0341796875,0.25244140625
27,0.1220703125,0.67138671875,0.30517578125,-0.20654296875,-1.03076171875,0.25634765625
28,0.1220703125,0.244140625,0.54931640625,-0.216796875,-1.03515625,0.2490234375
29,-0.244140625,0.42724609375,0.42724609375,-0.20849609375,-1.0322265625,0.244140625
30,0.30517578125,0.30517578125,0.3662109375,-0.203125,-1.0341796875,0.25537109375
31,-0.18310546875,0.18310546875,0.732421875,-0.2041015625,-1.03466796875,0.25341796875
32,0.1220703125,0.18310546875,0.42724609375,-0.20166015625,-1.03662109375,0.2529296875
33,0.3662109375,0.244140625,0.48828125,-0.21337890625,-1.03515625,0.2548828125
34,0.48828125,0.3662109375,0.244140625,-0.201171875,-1.0361328125,0.259765625
35,0.18310546875,0.42724609375,0.3662109375,-0.2109375,-1.033203125,0.24609375
36,-0.1220703125,0.6103515625,0.244140625,-0.2080078125,-1.03759765625,0.25732421875
37,-0.42724609375,0.0,0.6103515625,-0.21533203125,-1.0390625,0.2587890625
38,0.06103515625,0.0,0.0,-0.20361328125,-1.02734375,0.24658203125
39,-0.6103515625,-0.06103515625,0.18310546875,-0.20654296875,-1.037109375,0.2509765625
40,-0.30517578125,-0.1220703125,0.3662109375,-0.2099609375,-1.041015625,0.2490234375
41,-0.30517578125,-0.18310546875,0.06103515625,-0.20947265625,-1.0439453125,0.2509765625
42,-0.6103515625,-0.06103515625,0.1220703125,-0.2080078125,-1.04052734375,0.25537109375
43,-0.30517578125,-0.06103515625,-0.18310546875,-0.2080078125,-1.0341796875,0.24853515625
44,-0.06103515625,-0.06103515625,0.06103515625,-0.2099609375,-1.041015625,0.26025390625
45,-0.06103515625,0.06103515625,0.48828125,-0.20458984375,-1.033203125,0.25146484375
46,-0.244140625,0.42724609375,0.54931640625,-0.203125,-1.0361328125,0.248046875
47,-0.1220703125,0.244140625,0.30517578125,-0.20068359375,-1.03271484375,0.2548828125
48,-0.06103515625,0.18310546875,0.06103515625,-0.2080078125,-1.03076171875,0.2490234375
49,0.06103515625,0.3662109375,0.06103515625,-0.2119140625,-1.03369140625,0.24853515625
50,0.1220703125,0.30517578125,0.1220703125,-0.21240234375,-1.037109375,0.25341796875
51,-0.1220703125,0.30517578125,-0.06103515625,-0.2109375,-1.03564453125,0.25
52,-0.1220703125,-0.06103515625,0.244140625,-0.21044921875,-1.03759765625,0.2548828125
53,-0.244140625,-0.1220703125,0.48828125,-0.21240234375,-1.0380859375,0.25244140625
54,-0.06103515625,0.18310546875,0.42724609375,-0.21044921875,-1.03515625,0.25830078125
55,-0.1220703125,0.06103515625,0.48828125,-0.21484375,-1.03759765625,0.2509765625
56,-0.30517578125,-0.244140625,0.3662109375,-0.21435546875,-1.03564453125,0.25
57,-0.54931640625,-0.1220703125,0.244140625,-0.2060546875,-1.0390625,0.25048828125
58,0.18310546875,0.06103515625,0.1220703125,-0.20703125,-1.0361328125,0.244140625
59,-0.18310546875,0.1220703125,0.244140625,-0.20556640625,-1.0361328125,0.24951171875
60,-0.06103515625,0.0,0.1220703125,-0.20458984375,-1.033203125,0.255859375
61,0.06103515625,0.30517578125,0.6103515625,-0.21630859375,-1.0322265625,0.2490234375
62,0.244140625,0.244140625,0.244140625,-0.2060546875,-1.0439453125,0.259765625
63,0.0,0.1220703125,0.54931640625,-0.212890625,-1.041015625,0.2587890625
64,0.0,0.3662109375,-0.06103515625,-0.21533203125,-1.03369140625,0.2626953125
65,0.3662109375,0.18310546875,0.18310546875,-0.21142578125,-1.03857421875,0.2587890625
66,0.18310546875,-0.18310546875,0.3662109375,-0.2080078125,-1.04345703125,0.25
67,0.3662109375,0.18310546875,0.30517578125,-0.21435546875,-1.04052734375,0.2490234375
68,0.06103515625,-0.244140625,0.3662109375,-0.22021484375,-1.03076171875,0.248046875
69,-0.18310546875,-0.6103515625,0.0,-0.21142578125,-1.03662109375,0.24365234375
70,-0.18310546875,-0.9765625,0.06103515625,-0.20361328125,-1.03515625,0.25146484375
71,-0.8544921875,-1.220703125,0.18310546875,-0.20703125,-1.03955078125,0.25341796875
72,-0.244140625,-1.40380859375,0.244140625,-0.2109375,-1.0322265625,0.259765625
73,-0.244140625,-1.5869140625,0.30517578125,-0.20947265625,-1.033203125,0.2548828125
74,-0.3662109375,-1.953125,1.03759765625,-0.21435546875,-1.04345703125,0.236328125
75,-0.30517578125,-2.01416015625,0.79345703125,-0.201171875,-1.0322265625,0.25732421875
76,-0.54931640625,-2.38037109375,0.8544921875,-0.2099609375,-1.03759765625,0.248046875
77,-0.3662109375,-3.23486328125,1.28173828125,-0.21337890625,-1.04052734375,0.24365234375
78,-0.42724609375,-4.57763671875,1.64794921875,-0.2109375,-1.03564453125,0.2490234375
79,-0.8544921875,-4.94384765625,2.01416015625,-0.18798828125,-1.02783203125,0.26708984375
80,-1.46484375,-4.08935546875,1.77001953125,-0.2119140625,-1.03369140625,0.26171875
81,-1.953125,-3.47900390625,1.953125,-0.20458984375,-1.0361328125,0.26025390625
82,-2.197265625,-3.173828125,1.708984375,-0.20361328125,-1.029296875,0.26513671875
83,-2.9296875,-2.25830078125,1.46484375,-0.20458984375,-1.02978515625,0.267578125
84,-2.9296875,-2.0751953125,1.28173828125,-0.20263671875,-1.041015625,0.26220703125
85,-2.62451171875,-1.52587890625,1.46484375,-0.21240234375,-1.03076171875,0.25390625
86,-2.8076171875,-1.64794921875,1.708984375,-0.20361328125,-1.04150390625,0.2451171875
87,-2.25830078125,-1.0986328125,1.708984375,-0.21337890625,-1.0322265625,0.2509765625
88,-2.01416015625,-0.48828125,1.52587890625,-0.2060546875,-1.03271484375,0.25146484375
89,-2.38037109375,0.06103515625,1.3427734375,-0.20703125,-1.03662109375,0.25634765625
90,-2.197265625,0.67138671875,1.03759765625,-0.21142578125,-1.0302734375,0.2421875
91,-1.46484375,1.89208984375,0.67138671875,-0.201171875,-1.0322265625,0.2568359375
92,-2.50244140625,2.86865234375,0.732421875,-0.2109375,-1.03955078125,0.25537109375
93,-1.77001953125,2.8076171875,0.54931640625,-0.2109375,-1.04150390625,0.24560546875
94,-1.40380859375,3.0517578125,0.42724609375,-0.2138671875,-1.0390625,0.255859375
95,-1.52587890625,3.72314453125,0.0,-0.21142578125,-1.03125,0.24658203125
96,-1.5869140625,4.8828125,0.06103515625,-0.2060546875,-1.03369140625,0.251953125
97,-1.5869140625,5.79833984375,-0.42724609375,-0.21337890625,-1.03564453125,0.2548828125
98,-0.91552734375,6.04248046875,-0.91552734375,-0.2099609375,-1.0419921875,0.2431640625
99,-0.30517578125,5.615234375,-1.5869140625,-0.2099609375,-1.0390625,0.23828125
100,0.3662109375,5.2490234375,-1.3427734375,-0.22314453125,-1.03564453125,0.24853515625
101,0.67138671875,3.7841796875,-1.03759765625,-0.2265625,-1.0419921875,0.22705078125
102,1.77001953125,1.52587890625,-0.732421875,-0.2177734375,-1.04150390625,0.2451171875
103,1.8310546875,0.1220703125,-0.91552734375,-0.21484375,-1.03857421875,0.24755859375
104,1.77001953125,-0.42724609375,-0.54931640625,-0.21044921875,-1.0390625,0.244140625
105,2.5634765625,-0.732421875,-0.732421875,-0.2109375,-1.03466796875,0.24072265625
106,2.9296875,-0.8544921875,-0.3662109375,-0.208984375,-1.0341796875,0.2451171875
107,2.9296875,-0.732421875,-0.18310546875,-0.20556640625,-1.03955078125,0.25
108,3.173828125,-0.30517578125,0.0,-0.20849609375,-1.03759765625,0.251953125
109,2.3193359375,0.18310546875,0.0,-0.205078125,-1.03564453125,0.25830078125
110,1.5869140625,0.0,-0.1220703125,-0.2099609375,-1.0341796875,0.2509765625
111,1.40380859375,0.18310546875,-0.1220703125,-0.20947265625,-1.02880859375,0.2529296875
112,1.28173828125,0.8544921875,-0.06103515625,-0.2060546875,-1.0341796875,0.255859375
113,0.9765625,0.732421875,0.54931640625,-0.20849609375,-1.03515625,0.26123046875
114,0.54931640625,1.220703125,0.18310546875,-0.20947265625,-1.03662109375,0.263671875
115,0.54931640625,1.89208984375,0.42724609375,-0.2099609375,-1.03466796875,0.255859375
116,-0.06103515625,1.52587890625,0.3662109375,-0.20263671875,-1.03076171875,0.25439453125
117,-0.732421875,1.46484375,0.54931640625,-0.2119140625,-1.03515625,0.25
118,-0.18310546875,1.3427734375,0.06103515625,-0.2158203125,-1.03564453125,0.24853515625
119,-0.48828125,1.28173828125,0.42724609375,-0.21142578125,-1.041015625,0.2578125
120,-0.54931640625,1.220703125,0.18310546875,-0.20556640625,-1.03857421875,0.25732421875
121,-0.48828125,1.03759765625,-0.18310546875,-0.21240234375,-1.0341796875,0.2509765625
122,-0.9765625,0.67138671875,0.06103515625,-0.21435546875,-1.0341796875,0.251953125
123,-0.30517578125,0.732421875,0.0,-0.20947265625,-1.03955078125,0.25537109375
124,-1.28173828125,0.3662109375,0.1220703125,-0.21484375,-1.03271484375,0.25390625
125,-0.79345703125,0.06103515625,-0.1220703125,-0.21044921875,-1.03466796875,0.25537109375
126,-0.79345703125,0.3662109375,0.244140625,-0.21142578125,-1.03564453125,0.25341796875
127,-1.03759765625,0.06103515625,0.06103515625,-0.20703125,-1.0341796875,0.25439453125
128,-0.79345703125,-0.3662109375,0.0,-0.2080078125,-1.04345703125,0.2509765625
129,-1.220703125,-0.18310546875,-0.06103515625,-0.21533203125,-1.033203125,0.2548828125
130,-0.6103515625,-0.1220703125,0.1220703125,-0.2060546875,-1.03466796875,0.248046875
131,-0.3662109375,0.3662109375,0.244140625,-0.2080078125,-1.0380859375,0.25146484375
132,0.06103515625,0.48828125,0.244140625,-0.20703125,-1.03955078125,0.2490234375
133,-0.42724609375,0.48828125,0.30517578125,-0.20654296875,-1.0390625,0.25
134,-0.6103515625,0.30517578125,0.1220703125,-0.21337890625,-1.02978515625,0.2509765625
135,-0.54931640625,0.3662109375,0.67138671875,-0.20751953125,-1.03369140625,0.25390625
136,-0.3662109375,0.30517578125,0.48828125,-0.20849609375,-1.03857421875,0.25048828125
137,-0.48828125,0.6103515625,0.79345703125,-0.2138671875,-1.03564453125,0.26171875
138,-0.3662109375,0.91552734375,0.54931640625,-0.20263671875,-1.0341796875,0.25
139,-0.244140625,0.6103515625,0.6103515625,-0.208984375,-1.0390625,0.2490234375
140,-0.3662109375,0.91552734375,0.42724609375,-0.21044921875,-1.04150390625,0.25146484375
141,0.244140625,0.6103515625,0.42724609375,-0.20751953125,-1.03173828125,0.2548828125
142,-0.06103515625,0.67138671875,0.42724609375,-0.2109375,-1.03662109375,0.25146484375
143,0.0,1.220703125,0.732421875,-0.21435546875,-1.03662109375,0.24951171875
144,-0.30517578125,0.732421875,0.79345703125,-0.21240234375,-1.03125,0.24609375
145,-0.1220703125,0.6103515625,0.54931640625,-0.20166015625,-1.03369140625,0.2548828125
146,0.42724609375,0.3662109375,0.18310546875,-0.20654296875,-1.033203125,0.25341796875
147,0.0,0.42724609375,0.30517578125,-0.20849609375,-1.04150390625,0.2490234375
148,-0.30517578125,0.18310546875,0.244140625,-0.21484375,-1.03857421875,0.2529296875
149,-0.18310546875,0.0,0.3662109375,-0.2080078125,-1.03662109375,0.25244140625
150,0.42724609375,-0.3662109375,0.244140625,-0.212890625,-1.04296875,0.24462890625
151,0.18310546875,-0.79345703125,0.6103515625,-0.20849609375,-1.03662109375,0.24755859375
152,0.67138671875,-1.5869140625,0.48828125,-0.21240234375,-1.04345703125,0.2373046875
153,0.91552734375,-2.50244140625,0.48828125,-0.21533203125,-1.03515625,0.2529296875
154,-0.18310546875,-3.23486328125,0.79345703125,-0.2138671875,-1.04052734375,0.24267578125
155,0.48828125,-3.173828125,0.732421875,-0.20458984375,-1.0361328125,0.25732421875
156,0.1220703125,-3.60107421875,0.91552734375,-0.2109375,-1.041015625,0.255859375
157,-0.30517578125,-3.662109375,0.8544921875,-0.20751953125,-1.03515625,0.25634765625
158,-0.06103515625,-4.08935546875,1.0986328125,-0.21923828125,-1.03662109375,0.25634765625
159,-0.18310546875,-3.96728515625,1.15966796875,-0.21875,-1.02734375,0.2529296875
160,-0.30517578125,-4.57763671875,1.40380859375,-0.208984375,-1.03369140625,0.25634765625
161,-0.54931640625,-4.150390625,1.3427734375,-0.21630859375,-1.03857421875,0.259765625
162,-1.3427734375,-3.72314453125,1.3427734375,-0.20654296875,-1.03271484375,0.26416015625
163,-1.15966796875,-2.62451171875,1.03759765625,-0.21240234375,-1.02685546875,0.26611328125
164,-1.77001953125,-1.708984375,1.15966796875,-0.2080078125,-1.03271484375,0.2626953125
165,-2.50244140625,-0.91552734375,1.15966796875,-0.20654296875,-1.0283203125,0.26904296875
166,-2.86865234375,-0.06103515625,1.0986328125,-0.20361328125,-1.02783203125,0.265625
167,-2.74658203125,0.54931640625,1.0986328125,-0.2080078125,-1.03125,0.26708984375
168,-3.662109375,0.79345703125,1.15966796875,-0.20703125,-1.0380859375,0.251953125
169,-3.2958984375,1.52587890625,1.0986328125,-0.21435546875,-1.03076171875,0.25
170,-3.47900390625,2.197265625,0.42724609375,-0.2099609375,-1.02880859375,0.2451171875
171,-2.685546875,1.953125,0.67138671875,-0.2138671875,-1.0302734375,0.244140625
172,-2.685546875,1.64794921875,0.48828125,-0.20263671875,-1.0390625,0.24267578125
173,-2.0751953125,2.3193359375,0.3662109375,-0.2158203125,-1.0361328125,0.24951171875
174,-2.01416015625,3.23486328125,-0.1220703125,-0.2060546875,-1.03759765625,0.2529296875
175,-1.8310546875,4.150390625,-0.42724609375,-0.20361328125,-1.03271484375,0.25390625
176,-1.3427734375,5.18798828125,-0.3662109375,-0.21044921875,-1.0400390625,0.24267578125
177,-1.0986328125,5.43212890625,-0.6103515625,-0.20654296875,-1.0400390625,0.2470703125
178,-0.1220703125,5.2490234375,-0.48828125,-0.21142578125,-1.04296875,0.23583984375
179,0.3662109375,4.33349609375,-1.15966796875,-0.21826171875,-1.03662109375,0.23876953125
180,1.03759765625,3.662109375,-1.03759765625,-0.216796875,-1.04541015625,0.23291015625
181,1.46484375,2.5634765625,-0.8544921875,-0.21728515625,-1.041015625,0.23876953125
182,1.953125,1.64794921875,-0.9765625,-0.22119140625,-1.03662109375,0.23486328125
183,2.8076171875,0.8544921875,-1.03759765625,-0.216796875,-1.037109375,0.2431640625
184,2.5634765625,0.30517578125,-0.91552734375,-0.21142578125,-1.03857421875,0.24609375
185,2.99072265625,-0.30517578125,-1.03759765625,-0.20458984375,-1.03515625,0.24365234375
186,3.0517578125,-0.3662109375,-0.91552734375,-0.21240234375,-1.0390625,0.2529296875
187,3.41796875,-0.54931640625,-0.9765625,-0.2138671875,-1.0361328125,0.255859375
188,3.11279296875,-0.54931640625,-0.54931640625,-0.20849609375,-1.03857421875,0.255859375
189,2.50244140625,-0.3662109375,-0.30517578125,-0.2041015625,-1.03125,0.26708984375
190,1.953125,-0.30517578125,-0.3662109375,-0.20068359375,-1.03662109375,0.26416015625
191,1.3427734375,0.0,-0.18310546875,-0.208984375,-1.03173828125,0.26318359375
192,1.5869140625,0.0,-0.3662109375,-0.20703125,-1.0380859375,0.24755859375
193,0.6103515625,0.06103515625,-0.18310546875,-0.20849609375,-1.0341796875,0.251953125
194,0.42724609375,0.0,0.18310546875,-0.20947265625,-1.03076171875,0.24560546875
195,0.1220703125,-0.18310546875,-0.1220703125,-0.2109375,-1.04052734375,0.25146484375
196,0.06103515625,-0.06103515625,-0.30517578125,-0.2109375,-1.0341796875,0.2548828125
197,-0.18310546875,0.0,-0.244140625,-0.20947265625,-1.0361328125,0.2587890625
198,0.244140625,-0.06103515625,0.06103515625,-0.2060546875,-1.0341796875,0.2509765625
199,0.06103515625,0.0,0.1220703125,-0.2041015625,-1.03564453125,0.2568359375
200,-0.06103515625,-0.06103515625,0.06103515625,-0.20556640625,-1.0322265625,0.2451171875
201,0.30517578125,-0.48828125,0.1220703125,-0.2177734375,-1.033203125,0.248046875
202,0.1220703125,0.0,0.3662109375,-0.21044921875,-1.037109375,0.2568359375
203,0.0,-0.48828125,0.0,-0.2109375,-1.029296875,0.25341796875
204,0.3662109375,0.0,0.244140625,-0.21044921875,-1.03955078125,0.25537109375
205,0.0,0.18310546875,0.0,-0.2041015625,-1.033203125,0.251953125
206,0.48828125,0.18310546875,0.30517578125,-0.201171875,-1.0390625,0.251953125
207,0.30517578125,-0.06103515625,0.0,-0.20654296875,-1.037109375,0.255859375
208,0.9765625,-0.30517578125,0.1220703125,-0.19970703125,-1.02685546875,0.25244140625
209,0.30517578125,-0.1220703125,0.244140625,-0.2041015625,-1.03271484375,0.259765625
210,0.54931640625,0.18310546875,0.0,-0.2041015625,-1.03076171875,0.2568359375
211,0.732421875,0.244140625,0.30517578125,-0.19921875,-1.033203125,0.255859375
212,1.5869140625,0.42724609375,0.42724609375,-0.20751953125,-1.03369140625,0.25439453125
213,1.40380859375,0.732421875,0.18310546875,-0.205078125,-1.02978515625,0.25390625
214,0.67138671875,1.03759765625,0.3662109375,-0.21826171875,-1.03369140625,0.2666015625
215,0.18310546875,0.67138671875,0.0,-0.21826171875,-1.03271484375,0.2646484375
216,-1.15966796875,0.67138671875,0.1220703125,-0.2177734375,-1.037109375,0.26708984375
217,-1.03759765625,0.1220703125,-0.732421875,-0.21435546875,-1.0380859375,0.259765625
218,-1.5869140625,-0.06103515625,-0.6103515625,-0.21826171875,-1.04248046875,0.25048828125
219,-1.46484375,-1.03759765625,-0.48828125,-0.2109375,-1.03857421875,0.26513671875
220,-1.46484375,-1.0986328125,-0.732421875,-0.208984375,-1.03369140625,0.2490234375
221,-1.52587890625,-0.91552734375,-1.220703125,-0.2109375,-1.044921875,0.2431640625
222,-0.9765625,-0.6103515625,-0.8544921875,-0.203125,-1.0419921875,0.240234375
223,-0.67138671875,-0.42724609375,-0.9765625,-0.19921875,-1.03759765625,0.2451171875
224,-0.42724609375,-0.3662109375,-0.91552734375,-0.20263671875,-1.03271484375,0.248046875
225,0.18310546875,-0.18310546875,-0.48828125,-0.2041015625,-1.0380859375,0.25048828125
226,0.0,0.30517578125,-0.6103515625,-0.2001953125,-1.03857421875,0.2578125
227,0.244140625,0.1220703125,-0.6103515625,-0.20458984375,-1.029296875,0.25927734375
228,0.42724609375,0.06103515625,-0.67138671875,-0.212890625,-1.03125,0.2529296875
229,0.30517578125,0.18310546875,-0.732421875,-0.21044921875,-1.0380859375,0.25732421875
230,0.06103515625,-0.3662109375,-0.18310546875,-0.2119140625,-1.03125,0.25244140625
231,-0.30517578125,-0.1220703125,-0.3662109375,-0.20751953125,-1.02978515625,0.2626953125
232,-0.48828125,-0.9765625,-0.06103515625,-0.2021484375,-1.02880859375,0.25341796875
233,-0.3662109375,-1.46484375,0.06103515625,-0.2138671875,-1.03662109375,0.2529296875
234,-1.28173828125,-1.77001953125,0.1220703125,-0.2109375,-1.03076171875,0.25390625
235,-1.8310546875,-2.3193359375,0.06103515625,-0.20263671875,-1.03662109375,0.2685546875
236,-1.64794921875,-2.01416015625,0.30517578125,-0.208984375,-1.03466796875,0.25390625
237,-2.01416015625,-2.44140625,0.3662109375,-0.20361328125,-1.04150390625,0.25146484375
238,-1.8310546875,-2.99072265625,0.3662109375,-0.20458984375,-1.03564453125,0.24951171875
239,-1.953125,-2.86865234375,0.42724609375,-0.205078125,-1.0380859375,0.2529296875
240,-1.77001953125,-2.685546875,0.42724609375,-0.19873046875,-1.03662109375,0.259765625
241,-1.46484375,-2.01416015625,0.42724609375,-0.19140625,-1.0380859375,0.2509765625
242,-1.28173828125,-1.8310546875,0.30517578125,-0.205078125,-1.03955078125,0.2509765625
243,-0.48828125,-1.3427734375,0.48828125,-0.21533203125,-1.04296875,0.2490234375
244,-0.48828125,-0.67138671875,0.30517578125,-0.20166015625,-1.04052734375,0.25
245,0.8544921875,-0.67138671875,0.3662109375,-0.201171875,-1.03759765625,0.2490234375
246,0.732421875,-0.48828125,0.54931640625,-0.205078125,-1.0341796875,0.25390625
247,0.9765625,0.0,0.0,-0.20654296875,-1.03662109375,0.2568359375
248,1.220703125,-0.06103515625,0.732421875,-0.205078125,-1.0322265625,0.2529296875
249,1.28173828125,0.18310546875,0.06103515625,-0.20556640625,-1.03955078125,0.2578125
250,0.8544921875,0.1220703125,0.06103515625,-0.21142578125,-1.041015625,0.26025390625
251,0.67138671875,0.1220703125,0.42724609375,-0.20556640625,-1.0341796875,0.26123046875
252,0.30517578125,0.18310546875,0.30517578125,-0.21337890625,-1.0341796875,0.2578125
253,0.06103515625,0.06103515625,0.42724609375,-0.2099609375,-1.033203125,0.2529296875
254,-0.67138671875,-0.30517578125,0.244140625,-0.2080078125,-1.029296875,0.25634765625
255,-0.8544921875,-0.3662109375,0.67138671875,-0.21240234375,-1.03466796875,0.259765625
256,-0.3662109375,-0.42724609375,0.42724609375,-0.2041015625,-1.03955078125,0.248046875
257,-0.18310546875,-0.18310546875,0.48828125,-0.20458984375,-1.0322265625,0.2568359375
258,-0.42724609375,-0.48828125,0.91552734375,-0.205078125,-1.0341796875,0.26318359375
259,-1.03759765625,-0.6103515625,0.79345703125,-0.20361328125,-1.033203125,0.25537109375
260,-0.6103515625,-0.244140625,0.732421875,-0.2060546875,-1.02978515625,0.25
261,-0.48828125,-0.3662109375,0.79345703125,-0.20654296875,-1.0380859375,0.25732421875
262,-0.8544921875,0.732421875,0.54931640625,-0.2080078125,-1.0341796875,0.25390625
263,-0.48828125,0.42724609375,1.3427734375,-0.20849609375,-1.0380859375,0.25634765625
264,-0.91552734375,0.91552734375,1.0986328125,-0.20263671875,-1.0400390625,0.2470703125
265,0.1220703125,0.732421875,1.0986328125,-0.20458984375,-1.03759765625,0.2529296875
266,0.48828125,1.3427734375,0.732421875,-0.20458984375,-1.0341796875,0.26318359375
267,0.42724609375,1.8310546875,0.8544921875,-0.19921875,-1.03466796875,0.25
268,0.30517578125,1.52587890625,1.03759765625,-0.2080078125,-1.0302734375,0.26318359375
269,0.30517578125,1.64794921875,0.8544921875,-0.21142578125,-1.03515625,0.2578125
270,0.18310546875,1.89208984375,0.9765625,-0.2080078125,-1.0322265625,0.25048828125
271,0.54931640625,1.0986328125,1.220703125,-0.203125,-1.03759765625,0.2490234375
272,0.18310546875,1.40380859375,0.79345703125,-0.21435546875,-1.0322265625,0.2578125
273,-0.06103515625,1.220703125,0.79345703125,-0.2060546875,-1.03369140625,0.25830078125
274,0.0,1.0986328125,0.6103515625,-0.20458984375,-1.03955078125,0.2607421875
275,-0.1220703125,1.0986328125,0.732421875,-0.20751953125,-1.0341796875,0.25439453125
276,0.30517578125,0.732421875,0.48828125,-0.20654296875,-1.02880859375,0.2578125
277,-0.1220703125,0.91552734375,0.42724609375,-0.20654296875,-1.03515625,0.25537109375
278,-0.06103515625,1.15966796875,0.732421875,-0.21142578125,-1.03955078125,0.26025390625
279,-0.1220703125,0.9765625,0.54931640625,-0.220703125,-1.03857421875,0.2568359375
280,-0.244140625,0.8544921875,0.42724609375,-0.20556640625,-1.037109375,0.251953125
281,-0.18310546875,0.67138671875,0.3662109375,-0.20458984375,-1.03271484375,0.2607421875
282,-0.6103515625,0.79345703125,0.48828125,-0.2119140625,-1.0390625,0.263671875
283,-0.244140625,0.3662109375,0.6103515625,-0.2119140625,-1.0380859375,0.251953125
284,-0.6103515625,0.67138671875,0.30517578125,-0.20947265625,-1.04052734375,0.25
285,-0.244140625,0.48828125,0.79345703125,-0.2119140625,-1.0341796875,0.24560546875
286,-0.6103515625,0.42724609375,0.67138671875,-0.20947265625,-1.03564453125,0.25244140625
287,-0.6103515625,0.30517578125,0.244140625,-0.20947265625,-1.041015625,0.25634765625
288,-0.8544921875,-0.18310546875,0.48828125,-0.2060546875,-1.03759765625,0.2451171875
289,-0.48828125,0.3662109375,0.48828125,-0.20849609375,-1.0341796875,0.255859375
290,-0.30517578125,0.3662109375,0.42724609375,-0.20947265625,-1.02978515625,0.24853515625
291,-0.42724609375,0.42724609375,0.06103515625,-0.2099609375,-1.0380859375,0.25244140625
292,-0.244140625,-0.06103515625,0.42724609375,-0.208984375,-1.03662109375,0.2607421875
293,0.06103515625,0.3662109375,0.30517578125,-0.20703125,-1.0390625,0.24658203125
294,-0.1220703125,0.48828125,-0.06103515625,-0.21142578125,-1.03466796875,0.26513671875
295,0.0,0.67138671875,0.1220703125,-0.2109375,-1.03955078125,0.26416015625
296,0.244140625,0.30517578125,-0.06103515625,-0.2119140625,-1.037109375,0.26513671875
297,0.06103515625,0.1220703125,-0.1220703125,-0.21484375,-1.03515625,0.25048828125
298,-0.1220703125,0.06103515625,-0.06103515625,-0.208984375,-1.0341796875,0.2529296875
299,0.1220703125,0.06103515625,-0.1220703125,-0.21337890625,-1.03369140625,0.26220703125
300,-0.244140625,-0.30517578125,0.18310546875,-0.20947265625,-1.037109375,0.2529296875
301,0.0,-0.18310546875,0.0,-0.21337890625,-1.03271484375,0.2587890625
302,0.0,-0.18310546875,0.244140625,-0.19677734375,-1.03466796875,0.25927734375
303,-0.18310546875,-0.18310546875,0.0,-0.20947265625,-1.0322265625,0.25732421875
304,0.0,0.18310546875,0.1220703125,-0.2109375,-1.03759765625,0.255859375
305,0.0,-0.244140625,-0.18310546875,-0.20751953125,-1.04150390625,0.25732421875
306,-0.18310546875,-0.244140625,0.1220703125,-0.20263671875,-1.033203125,0.25390625
307,-0.244140625,0.18310546875,0.1220703125,-0.20556640625,-1.0380859375,0.25048828125
308,-0.1220703125,0.1220703125,0.18310546875,-0.20556640625,-1.03515625,0.25146484375
309,-0.18310546875,0.1220703125,0.1220703125,-0.20751953125,-1.0361328125,0.2421875
310,-0.18310546875,0.18310546875,0.30517578125,-0.20556640625,-1.03125,0.2568359375
311,-0.3662109375,-0.06103515625,0.0,-0.20751953125,-1.0400390625,0.2490234375
312,-0.06103515625,-0.1220703125,0.30517578125,-0.21435546875,-1.03271484375,0.263671875
313,-0.30517578125,0.0,0.1220703125,-0.2080078125,-1.03564453125,0.259765625
314,-0.42724609375,0.0,-0.06103515625,-0.2021484375,-1.033203125,0.25537109375
315,-0.42724609375,-0.1220703125,-0.06103515625,-0.20947265625,-1.03515625,0.24560546875
316,-0.3662109375,0.06103515625,0.1220703125,-0.2099609375,-1.0390625,0.2509765625
317,-0.244140625,0.244140625,0.54931640625,-0.2119140625,-1.03564453125,0.25830078125
318,-0.18310546875,0.42724609375,0.244140625,-0.20703125,-1.03515625,0.25732421875
319,-0.18310546875,0.06103515625,0.06103515625,-0.20654296875,-1.03515625,0.25732421875
320,-0.67138671875,0.18310546875,0.3662109375,-0.20654296875,-1.0400390625,0.26171875
321,-0.48828125,-0.1220703125,0.48828125,-0.2119140625,-1.03515625,0.2578125
322,-0.30517578125,-0.30517578125,0.30517578125,-0.2119140625,-1.03759765625,0.25244140625
323,0.0,-0.91552734375,0.1220703125,-0.20654296875,-1.03662109375,0.255859375
324,-0.18310546875,-0.8544921875,0.48828125,-0.2109375,-1.04296875,0.2431640625
325,-0.8544921875,-1.77001953125,0.30517578125,-0.212890625,-1.03857421875,0.26025390625
326,-0.244140625,-1.953125,0.0,-0.205078125,-1.041015625,0.25244140625
327,-0.3662109375,-2.0751953125,0.67138671875,-0.19970703125,-1.0361328125,0.255859375
328,-0.1220703125,-1.77001953125,0.6103515625,-0.1982421875,-1.03759765625,0.26513671875
329,-0.79345703125,-1.5869140625,0.79345703125,-0.2041015625,-1.0390625,0.25244140625
330,-0.244140625,-1.89208984375,0.48828125,-0.2109375,-1.0390625,0.25634765625
331,-0.244140625,-1.8310546875,0.9765625,-0.20751953125,-1.0361328125,0.259765625
332,0.18310546875,-1.953125,0.79345703125,-0.20068359375,-1.0390625,0.2568359375
333,-0.244140625,-2.25830078125,0.67138671875,-0.21044921875,-1.03515625,0.25732421875
334,-0.244140625,-1.953125,0.8544921875,-0.21240234375,-1.03857421875,0.25390625
335,-0.91552734375,-1.03759765625,0.732421875,-0.205078125,-1.03662109375,0.2587890625
336,-1.40380859375,-0.30517578125,0.67138671875,-0.205078125,-1.03271484375,0.2578125
337,-2.0751953125,0.30517578125,0.6103515625,-0.20947265625,-1.02587890625,0.24658203125
338,-2.685546875,0.732421875,1.220703125,-0.203125,-1.03125,0.26953125
339,-3.35693359375,1.5869140625,1.03759765625,-0.2001953125,-1.0322265625,0.2666015625
340,-3.173828125,0.8544921875,1.40380859375,-0.19677734375,-1.03173828125,0.25927734375
341,-2.685546875,1.46484375,1.15966796875,-0.2060546875,-1.03857421875,0.2587890625
342,-2.685546875,1.28173828125,1.220703125,-0.20947265625,-1.04296875,0.24609375
343,-2.0751953125,1.28173828125,0.91552734375,-0.2109375,-1.04052734375,0.24853515625
344,-1.953125,1.46484375,0.91552734375,-0.208984375,-1.0361328125,0.2431640625
345,-1.77001953125,1.15966796875,0.6103515625,-0.2080078125,-1.037109375,0.24365234375
346,-1.220703125,1.0986328125,1.15966796875,-0.212890625,-1.0380859375,0.2451171875
347,-0.244140625,0.9765625,0.67138671875,-0.2236328125,-1.04345703125,0.2431640625
348,0.67138671875,-0.18310546875,0.42724609375,-0.21337890625,-1.0419921875,0.24462890625
349,0.91552734375,-0.54931640625,0.30517578125,-0.208984375,-1.03857421875,0.24853515625
350,0.9765625,-0.54931640625,0.06103515625,-0.2080078125,-1.0361328125,0.25
351,1.40380859375,-0.79345703125,0.244140625,-0.22119140625,-1.041015625,0.24267578125
352,1.708984375,-0.30517578125,-0.1220703125,-0.20703125,-1.0302734375,0.25146484375
353,1.64794921875,-0.67138671875,0.18310546875,-0.203125,-1.03759765625,0.25390625
354,1.89208984375,-0.42724609375,0.06103515625,-0.2060546875,-1.0341796875,0.255859375
355,2.0751953125,0.1220703125,-0.06103515625,-0.20947265625,-1.03515625,0.2578125
356,2.01416015625,0.18310546875,-0.06103515625,-0.1982421875,-1.03759765625,0.25244140625
357,1.28173828125,0.18310546875,0.06103515625,-0.2080078125,-1.03369140625,0.25927734375
358,1.15966796875,0.732421875,0.42724609375,-0.2099609375,-1.03076171875,0.25
359,0.79345703125,0.54931640625,0.18310546875,-0.20654296875,-1.03466796875,0.25732421875
360,0.67138671875,0.54931640625,0.30517578125,-0.20849609375,-1.0341796875,0.26025390625
361,0.48828125,1.40380859375,0.06103515625,-0.205078125,-1.03564453125,0.25439453125
362,-0.06103515625,1.15966796875,0.30517578125,-0.21533203125,-1.03466796875,0.2626953125
363,-0.30517578125,1.3427734375,0.30517578125,-0.20166015625,-1.0390625,0.2568359375
364,-0.244140625,1.89208984375,0.18310546875,-0.21044921875,-1.02978515625,0.25634765625
365,-0.3662109375,2.13623046875,0.1220703125,-0.21044921875,-1.03369140625,0.25830078125
366,0.18310546875,2.3193359375,0.0,-0.21337890625,-1.033203125,0.25390625
367,0.06103515625,2.01416015625,-0.18310546875,-0.20703125,-1.0341796875,0.2568359375
368,0.18310546875,1.8310546875,-0.18310546875,-0.21826171875,-1.02978515625,0.25537109375
369,-0.30517578125,1.64794921875,-0.1220703125,-0.20947265625,-1.03173828125,0.24658203125
370,0.30517578125,0.9765625,0.3662109375,-0.21484375,-1.0341796875,0.25341796875
371,0.42724609375,0.79345703125,0.0,-0.20703125,-1.0361328125,0.25439453125
372,0.06103515625,0.6103515625,0.18310546875,-0.20849609375,-1.03515625,0.2451171875
373,-0.06103515625,0.79345703125,0.30517578125,-0.2109375,-1.037109375,0.26025390625
374,0.18310546875,0.18310546875,-0.06103515625,-0.2138671875,-1.0302734375,0.25439453125
375,0.0,0.06103515625,0.244140625,-0.21435546875,-1.037109375,0.25732421875
376,0.18310546875,-0.244140625,0.244140625,-0.20556640625,-1.03515625,0.255859375
377,-0.54931640625,0.1220703125,0.30517578125,-0.2060546875,-1.0283203125,0.25146484375
378,-0.6103515625,-0.48828125,0.30517578125,-0.205078125,-1.0302734375,0.25537109375
379,-0.54931640625,-0.244140625,0.06103515625,-0.208984375,-1.0322265625,0.2470703125
380,-0.06103515625,0.0,0.3662109375,-0.21142578125,-1.033203125,0.25146484375
381,-0.3662109375,-0.54931640625,0.18310546875,-0.21240234375,-1.03466796875,0.25439453125
382,0.1220703125,-0.732421875,0.3662109375,-0.208984375,-1.03515625,0.25537109375
383,0.06103515625,-0.3662109375,0.06103515625,-0.2099609375,-1.0361328125,0.251953125
384,-0.06103515625,-0.42724609375,-0.06103515625,-0.2109375,-1.03759765625,0.25537109375
385,0.244140625,-0.79345703125,0.18310546875,-0.21875,-1.03515625,0.24267578125
386,0.42724609375,-0.91552734375,-0.1220703125,-0.21533203125,-1.03125,0.2568359375
387,0.06103515625,-0.8544921875,-0.18310546875,-0.2060546875,-1.03857421875,0.2568359375
388,0.1220703125,-1.52587890625,0.18310546875,-0.2060546875,-1.03759765625,0.24560546875
389,0.06103515625,-1.708984375,-0.30517578125,-0.21337890625,-1.03466796875,0.2451171875
390,0.1220703125,-2.25830078125,-0.18310546875,-0.22314453125,-1.0400390625,0.2490234375
391,0.244140625,-3.0517578125,-0.18310546875,-0.2021484375,-1.03662109375,0.2587890625
392,0.48828125,-2.8076171875,0.1220703125,-0.205078125,-1.03369140625,0.25830078125
393,-0.1220703125,-2.74658203125,-0.42724609375,-0.20849609375,-1.03125,0.25146484375
394,0.30517578125,-2.13623046875,-0.18310546875,-0.20068359375,-1.02734375,0.25634765625
395,0.0,-2.5634765625,-0.1220703125,-0.2021484375,-1.03662109375,0.251953125
396,0.8544921875,-2.44140625,-0.18310546875,-0.20751953125,-1.03076171875,0.25244140625
397,0.3662109375,-2.38037109375,-0.30517578125,-0.208984375,-1.03466796875,0.25634765625
398,0.3662109375,-2.3193359375,-0.54931640625,-0.208984375,-1.0419921875,0.2587890625
399,0.732421875,-2.44140625,0.0,-0.1982421875,-1.041015625,0.25927734375
400,0.67138671875,-2.25830078125,-0.06103515625,-0.205078125,-1.02392578125,0.25537109375
401,-0.06103515625,-2.01416015625,-0.6103515625,-0.216796875,-1.02880859375,0.24658203125
402,-0.18310546875,-2.25830078125,0.1220703125,-0.20751953125,-1.0322265625,0.26123046875
403,0.18310546875,-1.77001953125,-0.244140625,-0.20458984375,-1.0341796875,0.259765625
404,0.1220703125,-1.64794921875,0.0,-0.20947265625,-1.03466796875,0.25830078125
405,0.67138671875,-1.8310546875,-0.42724609375,-0.20361328125,-1.03662109375,0.25439453125
406,0.06103515625,-2.3193359375,-0.244140625,-0.197265625,-1.03466796875,0.2587890625
407,0.3662109375,-1.77001953125,-0.3662109375,-0.2080078125,-1.03076171875,0.2548828125
408,0.06103515625,-1.40380859375,0.30517578125,-0.20458984375,-1.03564453125,0.2529296875
409,0.48828125,-1.03759765625,-0.1220703125,-0.2001953125,-1.0302734375,0.26025390625
410,0.06103515625,-1.0986328125,-0.06103515625,-0.20068359375,-1.03564453125,0.25244140625
411,-0.244140625,-0.91552734375,0.1220703125,-0.20654296875,-1.04150390625,0.25146484375
412,0.06103515625,-2.01416015625,-0.1220703125,-0.2109375,-1.04833984375,0.23876953125
413,0.42724609375,-2.0751953125,-0.3662109375,-0.208984375,-1.03369140625,0.255859375
414,-0.1220703125,-2.01416015625,-0.30517578125,-0.201171875,-1.0322265625,0.2705078125
415,-0.30517578125,-2.01416015625,0.0,-0.19970703125,-1.0341796875,0.263671875
416,-0.54931640625,-1.8310546875,0.06103515625,-0.20166015625,-1.03662109375,0.26220703125
417,0.1220703125,-2.01416015625,-0.244140625,-0.20166015625,-1.02978515625,0.2587890625
418,0.1220703125,-1.220703125,-0.18310546875,-0.2080078125,-1.02783203125,0.26025390625
419,0.18310546875,-1.708984375,-0.3662109375,-0.212890625,-1.0390625,0.25048828125
420,0.6103515625,-1.77001953125,-0.42724609375,-0.19970703125,-1.0419921875,0.255859375
421,-0.06103515625,-2.01416015625,0.0,-0.19921875,-1.0361328125,0.26806640625
422,-0.1220703125,-1.77001953125,-0.06103515625,-0.20751953125,-1.033203125,0.263671875
423,-0.732421875,-1.5869140625,0.0,-0.2021484375,-1.03466796875,0.27001953125
424,-0.79345703125,-1.64794921875,0.244140625,-0.20166015625,-1.0341796875,0.26904296875
425,-0.1220703125,-1.3427734375,-0.67138671875,-0.20556640625,-1.03955078125,0.25830078125
426,-0.18310546875,-1.46484375,-0.48828125,-0.20703125,-1.0341796875,0.259765625
427,0.244140625,-1.3427734375,-0.67138671875,-0.20751953125,-1.03466796875,0.26416015625
428,-0.18310546875,-1.3427734375,-0.244140625,-0.2001953125,-1.03369140625,0.2587890625
429,0.1220703125,-1.0986328125,-0.06103515625,-0.2001953125,-1.03466796875,0.26611328125
430,0.06103515625,-0.732421875,0.30517578125,-0.1943359375,-1.03857421875,0.259765625
431,-0.6103515625,-0.67138671875,0.06103515625,-0.20654296875,-1.03173828125,0.2705078125
432,-0.30517578125,-0.30517578125,0.18310546875,-0.20751953125,-1.0302734375,0.2705078125
433,-0.244140625,-0.42724609375,0.42724609375,-0.19921875,-1.0400390625,0.25732421875
434,-0.42724609375,-0.244140625,0.30517578125,-0.20458984375,-1.0302734375,0.26220703125
435,-0.42724609375,-0.18310546875,0.3662109375,-0.19970703125,-1.0322265625,0.267578125
436,-0.30517578125,0.18310546875,-0.1220703125,-0.2041015625,-1.03564453125,0.2578125
437,0.244140625,0.18310546875,0.06103515625,-0.20361328125,-1.03564453125,0.26171875
438,-0.30517578125,0.1220703125,0.06103515625,-0.2041015625,-1.037109375,0.25634765625
439,-0.67138671875,-0.244140625,0.18310546875,-0.203125,-1.03662109375,0.25390625
440,-0.1220703125,-0.06103515625,0.244140625,-0.20458984375,-1.03125,0.259765625
441,0.0,-0.1220703125,0.1220703125,-0.20703125,-1.03369140625,0.25830078125
442,0.06103515625,-0.1220703125,-0.18310546875,-0.1982421875,-1.03662109375,0.25830078125
443,-0.30517578125,-0.54931640625,0.1220703125,-0.19921875,-1.03515625,0.263671875
444,-0.42724609375,-0.30517578125,0.3662109375,-0.20361328125,-1.03466796875,0.263671875
445,-0.244140625,-0.244140625,0.3662109375,-0.1982421875,-1.0341796875,0.26318359375
446,-0.18310546875,0.1220703125,0.54931640625,-0.203125,-1.0380859375,0.263671875
447,-0.42724609375,0.244140625,0.79345703125,-0.19921875,-1.03515625,0.2578125
448,-0.3662109375,0.42724609375,0.42724609375,-0.20166015625,-1.0341796875,0.25390625
449,-0.18310546875,0.3662109375,0.48828125,-0.2001953125,-1.0322265625,0.255859375
450,-0.3662109375,0.54931640625,0.54931640625,-0.20166015625,-1.03857421875,0.2666015625
451,-0.48828125,0.67138671875,0.30517578125,-0.201171875,-1.041015625,0.25341796875
452,-0.18310546875,0.79345703125,0.18310546875,-0.201171875,-1.03125,0.26318359375
453,0.06103515625,0.48828125,0.06103515625,-0.205078125,-1.0390625,0.2568359375
454,0.3662109375,0.54931640625,-0.06103515625,-0.19873046875,-1.03515625,0.2529296875
455,-0.30517578125,0.54931640625,0.67138671875,-0.197265625,-1.0361328125,0.26708984375
456,0.244140625,0.6103515625,0.30517578125,-0.19970703125,-1.037109375,0.25830078125
457,0.3662109375,0.30517578125,0.30517578125,-0.2041015625,-1.0390625,0.25048828125
458,0.54931640625,-0.48828125,-0.06103515625,-0.20703125,-1.04248046875,0.26025390625
459,0.67138671875,-0.732421875,0.30517578125,-0.2080078125,-1.0390625,0.26123046875
460,0.06103515625,-0.67138671875,-0.1220703125,-0.21142578125,-1.03173828125,0.26611328125
461,-0.244140625,-0.91552734375,-0.3662109375,-0.19873046875,-1.0341796875,0.26025390625
462,-0.3662109375,-0.79345703125,0.06103515625,-0.2001953125,-1.0302734375,0.25537109375
463,-0.3662109375,-0.42724609375,-0.06103515625,-0.1982421875,-1.0341796875,0.26123046875
464,-0.30517578125,-0.48828125,0.732421875,-0.19482421875,-1.03564453125,0.25732421875
465,0.18310546875,-0.06103515625,0.67138671875,-0.2001953125,-1.037109375,0.2607421875
466,-0.06103515625,-0.1220703125,0.54931640625,-0.19921875,-1.0361328125,0.26220703125
467,0.1220703125,0.1220703125,0.48828125,-0.19580078125,-1.03466796875,0.259765625
468,0.1220703125,0.06103515625,0.6103515625,-0.2001953125,-1.037109375,0.25732421875
469,-0.1220703125,0.48828125,0.30517578125,-0.201171875,-1.0322265625,0.26708984375
470,-0.30517578125,0.18310546875,0.6103515625,-0.19775390625,-1.03662109375,0.26708984375
471,-0.244140625,0.06103515625,0.79345703125,-0.20263671875,-1.0341796875,0.25830078125
472,-0.42724609375,0.244140625,0.42724609375,-0.2001953125,-1.033203125,0.26220703125
473,-0.42724609375,0.244140625,0.79345703125,-0.20068359375,-1.03662109375,0.26123046875
474,-0.244140625,0.48828125,0.9765625,-0.2001953125,-1.03515625,0.25927734375
475,-0.67138671875,0.6103515625,1.03759765625,-0.201171875,-1.02978515625,0.26513671875
476,-0.67138671875,0.79345703125,1.40380859375,-0.203125,-1.03125,0.26220703125
477,-1.220703125,1.5869140625,1.52587890625,-0.193359375,-1.0263671875,0.263671875
478,-0.9765625,1.708984375,2.01416015625,-0.19384765625,-1.0244140625,0.2626953125
479,-1.708984375,2.5634765625,1.953125,-0.19287109375,-1.02880859375,0.2666015625
480,-1.5869140625,2.74658203125,2.62451171875,-0.20068359375,-1.0390625,0.26708984375
481,-1.5869140625,3.0517578125,3.0517578125,-0.20849609375,-1.0380859375,0.25390625
482,-1.5869140625,3.2958984375,2.99072265625,-0.2041015625,-1.03369140625,0.26708984375
483,-2.01416015625,3.60107421875,3.35693359375,-0.2080078125,-1.03662109375,0.26416015625
484,-1.8310546875,3.35693359375,3.35693359375,-0.20556640625,-1.03271484375,0.26123046875
485,-1.89208984375,3.0517578125,3.35693359375,-0.20361328125,-1.03564453125,0.25830078125
486,-2.13623046875,3.173828125,2.99072265625,-0.203125,-1.03759765625,0.26318359375
487,-1.77001953125,3.23486328125,2.86865234375,-0.21337890625,-1.03173828125,0.25634765625
488,-1.77001953125,3.47900390625,2.99072265625,-0.2216796875,-1.0302734375,0.24951171875
489,-1.220703125,4.0283203125,2.86865234375,-0.2080078125,-1.02978515625,0.26025390625
490,-1.46484375,3.173828125,2.74658203125,-0.21826171875,-1.03955078125,0.2587890625
491,-1.52587890625,3.11279296875,2.50244140625,-0.22119140625,-1.0419921875,0.25
492,-1.03759765625,3.47900390625,2.0751953125,-0.208984375,-1.0322265625,0.2607421875
493,-1.15966796875,3.0517578125,2.197265625,-0.2158203125,-1.0380859375,0.2470703125
494,-1.3427734375,2.8076171875,1.89208984375,-0.2158203125,-1.03857421875,0.25048828125
495,-1.28173828125,2.0751953125,2.0751953125,-0.21826171875,-1.0361328125,0.2470703125
496,-0.3662109375,2.197265625,1.953125,-0.20703125,-1.0361328125,0.25439453125
497,-0.3662109375,1.77001953125,2.0751953125,-0.20458984375,-1.03369140625,0.26220703125
498,-0.48828125,1.3427734375,2.50244140625,-0.21044921875,-1.0283203125,0.2587890625
499,-0.6103515625,1.28173828125,2.5634765625,-0.20703125,-1.01953125,0.2578125
500,-0.79345703125,1.220703125,2.685546875,-0.208984375,-1.0224609375,0.2626953125
501,-1.40380859375,1.03759765625,2.197265625,-0.22021484375,-1.03125,0.251953125
502,-0.732421875,0.1220703125,1.953125,-0.228515625,-1.03662109375,0.2373046875
503,-0.9765625,0.8544921875,1.89208984375,-0.212890625,-1.02587890625,0.2626953125
504,-1.3427734375,-0.30517578125,2.25830078125,-0.21044921875,-1.02294921875,0.26953125
505,-1.46484375,-0.42724609375,1.953125,-0.20849609375,-1.01953125,0.27587890625
506,-2.13623046875,-0.42724609375,2.25830078125,-0.20556640625,-1.02783203125,0.26513671875
507,-2.8076171875,-0.8544921875,2.62451171875,-0.2041015625,-1.02197265625,0.2666015625
508,-2.74658203125,-0.8544921875,3.47900390625,-0.20947265625,-1.01318359375,0.2763671875
509,-2.3193359375,-1.3427734375,3.72314453125,-0.20166015625,-1.0302734375,0.2587890625
510,-3.11279296875,-0.30517578125,3.662109375,-0.20654296875,-1.0224609375,0.25146484375
511,-2.62451171875,-0.91552734375,4.82177734375,-0.2021484375,-1.0185546875,0.263671875
512,-2.5634765625,-1.77001953125,5.18798828125,-0.21533203125,-1.0234375,0.26318359375
513,-2.01416015625,-1.64794921875,5.2490234375,-0.20166015625,-1.03466796875,0.240234375
514,-0.18310546875,-1.77001953125,4.94384765625,-0.2197265625,-1.0400390625,0.21728515625
515,-0.1220703125,-1.953125,5.0048828125,-0.2255859375,-1.03759765625,0.23876953125
516,-1.708984375,-2.99072265625,4.7607421875,-0.22216796875,-1.02783203125,0.26708984375
517,-4.57763671875,-4.150390625,4.82177734375,-0.25,-1.0322265625,0.23974609375
518,-5.18798828125,-2.99072265625,3.90625,-0.24365234375,-1.04150390625,0.26318359375
519,-5.7373046875,-2.50244140625,3.173828125,-0.23779296875,-1.060546875,0.23193359375
520,-5.43212890625,-1.5869140625,2.197265625,-0.234375,-1.03955078125,0.25341796875
521,-4.39453125,-0.54931640625,1.708984375,-0.22021484375,-1.06982421875,0.21435546875
522,-3.5400390625,3.23486328125,-0.244140625,-0.2255859375,-1.05517578125,0.23583984375
523,-2.9296875,5.2490234375,-1.28173828125,-0.23193359375,-1.0546875,0.2353515625
524,-2.197265625,7.01904296875,-2.86865234375,-0.23291015625,-1.044921875,0.23388671875
525,-1.8310546875,8.30078125,-3.90625,-0.23095703125,-1.03759765625,0.24072265625
526,-2.197265625,9.6435546875,-5.37109375,-0.2490234375,-1.0400390625,0.23388671875
527,-1.64794921875,8.30078125,-6.9580078125,-0.24609375,-1.046875,0.23193359375
528,-0.732421875,8.85009765625,-7.8125,-0.22314453125,-1.041015625,0.23046875
529,-1.220703125,10.009765625,-8.85009765625,-0.23291015625,-1.04931640625,0.21630859375
530,-0.244140625,10.3759765625,-9.33837890625,-0.228515625,-1.05322265625,0.22900390625
531,1.3427734375,9.033203125,-10.009765625,-0.2353515625,-1.05810546875,0.20263671875
532,4.08935546875,7.2021484375,-10.25390625,-0.2353515625,-1.0517578125,0.20947265625
533,3.90625,7.38525390625,-10.80322265625,-0.23193359375,-1.0419921875,0.23779296875
534,4.08935546875,5.37109375,-11.962890625,-0.24169921875,-1.060546875,0.2177734375
535,4.94384765625,2.197265625,-12.451171875,-0.2451171875,-1.05810546875,0.22802734375
536,6.04248046875,-1.40380859375,-13.12255859375,-0.23583984375,-1.0478515625,0.2314453125
537,5.06591796875,-3.11279296875,-13.18359375,-0.2255859375,-1.03173828125,0.2685546875
538,4.57763671875,-5.55419921875,-12.5732421875,-0.21533203125,-1.05224609375,0.2529296875
539,3.0517578125,-6.77490234375,-11.962890625,-0.18212890625,-1.01953125,0.27734375
540,0.244140625,-6.8359375,-12.51220703125,-0.1962890625,-1.0302734375,0.255859375
541,-3.47900390625,-7.01904296875,-12.39013671875,-0.1796875,-1.01708984375,0.30712890625
542,-11.90185546875,-8.85009765625,-15.31982421875,-0.173828125,-0.9892578125,0.32568359375
543,-15.9912109375,-10.8642578125,-17.9443359375,-0.33251953125,-1.03955078125,0.3779296875
544,-28.99169921875,-10.31494140625,-25.81787109375,-0.22265625,-1.0048828125,0.4296875
545,-27.16064453125,-8.60595703125,-32.3486328125,-0.30078125,-1.083984375,0.30029296875
546,-37.59765625,-9.21630859375,-37.90283203125,-0.228515625,-1.03515625,0.390625
547,-28.3203125,-5.18798828125,-38.0859375,-0.2470703125,-1.146484375,0.13330078125
548,-27.64892578125,-4.638671875,-45.22705078125,-0.28125,-1.19677734375,0.22607421875
549,-21.6064453125,1.46484375,-50.47607421875,-0.1669921875,-1.11181640625,0.1611328125
550,-16.2353515625,2.9296875,-54.5654296875,-0.216796875,-1.14501953125,0.22314453125
551,-14.16015625,3.11279296875,-58.53271484375,-0.20947265625,-1.14453125,0.208984375
552,-13.916015625,0.8544921875,-63.3544921875,-0.26171875,-1.1328125,0.23486328125
553,-13.12255859375,-2.62451171875,-67.87109375,-0.306640625,-1.28173828125,0.26904296875
554,-8.544921875,-8.6669921875,-75.0732421875,-0.2265625,-1.1005859375,0.30908203125
555,-13.5498046875,-7.568359375,-82.94677734375,-0.2412109375,-1.16650390625,0.26025390625
556,-14.34326171875,-9.58251953125,-90.63720703125,-0.2626953125,-1.16357421875,0.28125
557,-17.7001953125,-8.6669921875,-100.4638671875,-0.27197265625,-1.17626953125,0.3115234375
558,-19.775390625,-8.85009765625,-109.19189453125,-0.2646484375,-1.23828125,0.27734375
559,-21.240234375,-12.3291015625,-121.27685546875,-0.18701171875,-1.30908203125,0.32568359375
560,-19.6533203125,-15.93017578125,-133.9111328125,-0.27587890625,-1.36572265625,0.20703125
561,-11.53564453125,-16.17431640625,-145.08056640625,-0.3759765625,-1.4287109375,0.193359375
562,-16.17431640625,-15.56396484375,-160.0341796875,-0.216796875,-1.255859375,0.1572265625
563,-12.87841796875,-18.1884765625,-174.74365234375,-0.30810546875,-1.4619140625,0.107421875
564,-7.50732421875,-20.99609375,-191.10107421875,-0.29248046875,-1.57080078125,0.119140625
565,-1.953125,-24.59716796875,-210.99853515625,-0.31298828125,-1.5029296875,0.107421875
566,3.47900390625,-24.23095703125,-231.38427734375,-0.35302734375,-1.591796875,0.1787109375
567,18.6767578125,-28.74755859375,-250.0,-0.5322265625,-1.71044921875,0.0029296875
568,14.892578125,-23.98681640625,-277.64892578125,-0.1591796875,-1.5888671875,-0.01806640625
569,8.30078125,-7.568359375,-303.1005859375,-0.33837890625,-1.85107421875,-0.10205078125
570,20.56884765625,-8.056640625,-325.439453125,0.14404296875,-2.1357421875,-0.0224609375
571,26.06201171875,-1.15966796875,-350.28076171875,-0.25439453125,-1.9853515625,-0.0400390625
572,15.5029296875,1.89208984375,-372.98583984375,-0.0947265625,-2.37744140625,-0.03369140625
573,38.330078125,0.9765625,-382.568359375,-0.38623046875,-2.78076171875,-0.08203125
574,48.7060546875,10.19287109375,-402.4658203125,-0.30615234375,-2.30224609375,0.06396484375
575,64.94140625,9.70458984375,-411.4990234375,-0.63232421875,-3.140625,-0.25
576,94.66552734375,9.94873046875,-422.30224609375,-0.54443359375,-3.13134765625,-0.2216796875
577,132.75146484375,18.1884765625,-416.50390625,-0.59375,-2.36376953125,-0.05224609375
578,134.21630859375,21.54541015625,-375.732421875,-1.0908203125,-1.31982421875,-0.83251953125
579,160.64453125,49.74365234375,-355.04150390625,-0.501953125,-0.94189453125,-0.80712890625
580,108.2763671875,50.84228515625,-161.68212890625,0.5810546875,0.48388671875,0.43115234375
581,18.98193359375,70.4345703125,-16.90673828125,-0.232421875,-0.4599609375,-0.171875
582,-1.708984375,80.9326171875,74.0966796875,-0.5732421875,-1.14306640625,-0.38134765625
583,-2.01416015625,83.1298828125,123.4130859375,-0.8154296875,-1.1181640625,-0.28173828125
584,17.51708984375,75.37841796875,141.11328125,-1.06298828125,-1.17138671875,-0.45458984375
585,39.794921875,66.58935546875,150.20751953125,-0.98095703125,-0.849609375,-0.34423828125
586,51.26953125,57.43408203125,160.64453125,-0.857421875,-0.64404296875,-0.3134765625
587,54.50439453125,49.1943359375,175.84228515625,-0.77490234375,-0.4892578125,-0.2578125
588,48.583984375,43.64013671875,193.4814453125,-0.67529296875,-0.37841796875,-0.22119140625
589,33.75244140625,40.1611328125,213.37890625,-0.591796875,-0.31103515625,-0.193359375
590,14.58740234375,37.53662109375,233.88671875,-0.5595703125,-0.32763671875,-0.18017578125
591,-4.08935546875,36.62109375,252.685546875,-0.5263671875,-0.39111328125,-0.1630859375
592,-21.17919921875,34.60693359375,267.15087890625,-0.51904296875,-0.46484375,-0.15673828125
593,-37.4755859375,32.65380859375,278.3203125,-0.5087890625,-0.57275390625,-0.134765625
594,-51.81884765625,31.1279296875,285.2783203125,-0.46484375,-0.701171875,-0.12353515625
595,-64.8193359375,30.70068359375,290.22216796875,-0.431640625,-0.75341796875,-0.08251953125
596,-77.2705078125,31.1279296875,295.83740234375,-0.40673828125,-0.81298828125,-0.07177734375
597,-89.35546875,33.38623046875,300.35400390625,-0.3896484375,-0.8994140625,-0.0283203125
598,-99.9755859375,36.68212890625,303.3447265625,-0.3740234375,-0.9892578125,0.005859375
599,-110.77880859375,42.3583984375,305.908203125,-0.345703125,-1.06982421875,0.029296875
600,-120.30029296875,48.9501953125,308.9599609375,-0.3095703125,-1.17236328125,0.05859375
601,-126.953125,56.57958984375,311.6455078125,-0.28857421875,-1.3193359375,0.08642578125
602,-129.5166015625,65.3076171875,314.02587890625,-0.29052734375,-1.45947265625,0.08984375
603,-130.2490234375,74.21875,316.0400390625,-0.31005859375,-1.56591796875,0.1318359375
604,-131.40869140625,82.3974609375,317.07763671875,-0.328125,-1.68115234375,0.19580078125
605,-134.09423828125,88.07373046875,316.22314453125,-0.39453125,-1.80322265625,0.24658203125
606,-140.44189453125,90.14892578125,315.185546875,-0.431640625,-1.974609375,0.31689453125
607,-148.3154296875,84.5947265625,314.39208984375,-0.43505859375,-2.10498046875,0.4462890625
608,-160.70556640625,76.84326171875,314.0869140625,-0.337890625,-2.24462890625,0.6318359375
609,-174.072265625,65.73486328125,315.36865234375,-0.1162109375,-2.43896484375,0.81005859375
610,-183.9599609375,53.03955078125,317.0166015625,0.22900390625,-2.73681640625,0.9384765625
611,-179.87060546875,38.57421875,319.88525390625,0.591796875,-3.07421875,1.00439453125
612,-51.57470703125,-103.02734375,267.88330078125,2.68505859375,-1.64453125,-0.70068359375
613,-79.77294921875,-1.40380859375,295.41015625,2.28662109375,-1.390625,0.671875
614,-26.9775390625,-39.24560546875,310.24169921875,2.205078125,-2.17919921875,1.53857421875
615,-77.81982421875,-1.3427734375,292.78564453125,2.9853515625,-1.7294921875,1.16650390625
616,-65.24658203125,22.27783203125,225.09765625,2.8037109375,-4.19482421875,0.70166015625
617,-75.927734375,36.9873046875,150.57373046875,3.18798828125,-1.81689453125,1.0830078125
618,-29.11376953125,38.9404296875,31.005859375,2.67138671875,-2.47021484375,1.80126953125
619,28.62548828125,2.38037109375,-96.00830078125,2.279296875,-3.0078125,1.81787109375
620,121.64306640625,-42.724609375,-210.693359375,2.5595703125,-2.962890625,1.2275390625
621,232.421875,-105.95703125,-261.41357421875,2.6318359375,-1.7490234375,0.92822265625
622,180.72509765625,-219.90966796875,-263.85498046875,-1.22607421875,0.416015625,0.9384765625
623,106.62841796875,-165.283203125,-261.77978515625,-0.810546875,-0.37890625,1.1455078125
624,53.8330078125,-97.47314453125,-258.60595703125,0.28515625,-1.18212890625,1.0498046875
625,46.93603515625,-87.5244140625,-211.73095703125,0.76904296875,-1.7119140625,0.94921875
626,40.46630859375,-58.7158203125,-186.767578125,0.23046875,-1.1748046875,0.66552734375
627,33.8134765625,-5.55419921875,-161.92626953125,0.3994140625,-1.42578125,0.58447265625
628,33.75244140625,17.63916015625,-120.78857421875,0.24560546875,-1.255859375,0.52734375
629,35.888671875,14.70947265625,-96.19140625,-0.1015625,-1.27783203125,0.2080078125
630,41.07666015625,-24.10888671875,-71.533203125,0.18212890625,-1.62109375,0.05126953125
631,44.73876953125,-69.091796875,-19.34814453125,1.06103515625,-1.80615234375,-0.0224609375
632,51.45263671875,-54.99267578125,-5.9814453125,-0.2529296875,-1.02734375,0.16748046875
633,51.69677734375,-53.22265625,-3.47900390625,-0.13037109375,-0.93115234375,0.3671875
634,39.00146484375,-47.30224609375,-1.3427734375,-0.146484375,-0.966796875,0.34619140625
635,29.541015625,-46.08154296875,-0.18310546875,-0.2734375,-1.02978515625,0.2353515625
636,24.35302734375,-38.26904296875,-0.244140625,-0.26171875,-1.06689453125,0.2412109375
637,16.66259765625,-22.03369140625,-0.91552734375,-0.22705078125,-1.0087890625,0.30908203125
638,14.2822265625,-17.578125,-2.5634765625,-0.22021484375,-1.0693359375,0.24658203125
639,15.07568359375,-15.869140625,-3.84521484375,-0.23095703125,-1.01611328125,0.2783203125
640,9.46044921875,-17.08984375,-3.72314453125,-0.18701171875,-0.96435546875,0.4013671875
641,2.50244140625,-14.0380859375,-4.21142578125,-0.2236328125,-1.01220703125,0.3291015625
642,0.3662109375,-12.8173828125,-5.43212890625,-0.283203125,-1.05859375,0.22216796875
643,0.91552734375,-11.53564453125,-7.14111328125,-0.2197265625,-1.04296875,0.2646484375
644,-2.25830078125,-11.23046875,-7.4462890625,-0.208984375,-1.0,0.33447265625
645,-2.25830078125,-8.056640625,-8.60595703125,-0.25,-1.060546875,0.22216796875
646,-0.06103515625,-3.72314453125,-9.765625,-0.2001953125,-1.08740234375,0.19580078125
647,2.01416015625,1.28173828125,-10.3759765625,-0.1748046875,-1.04931640625,0.23876953125
648,2.38037109375,5.43212890625,-11.1083984375,-0.201171875,-1.0361328125,0.29931640625
649,0.48828125,7.9345703125,-11.53564453125,-0.189453125,-1.02001953125,0.30322265625
650,-1.8310546875,8.9111328125,-11.65771484375,-0.20263671875,-1.041015625,0.29150390625
651,-4.33349609375,6.77490234375,-11.8408203125,-0.228515625,-1.03955078125,0.275390625
652,-5.126953125,5.43212890625,-10.8642578125,-0.20703125,-1.0361328125,0.2890625
653,-6.2255859375,2.38037109375,-10.19287109375,-0.197265625,-1.0537109375,0.23828125
654,-3.47900390625,2.685546875,-11.8408203125,-0.2099609375,-1.0830078125,0.275390625
655,-0.6103515625,5.43212890625,-17.9443359375,-0.35791015625,-1.12255859375,0.30712890625
656,-4.0283203125,5.126953125,-20.69091796875,-0.20068359375,-1.1123046875,0.1875
657,8.11767578125,9.3994140625,-27.40478515625,-0.22802734375,-1.09765625,0.23291015625
658,0.244140625,7.2021484375,-32.8369140625,-0.35595703125,-1.13037109375,0.37109375
659,-0.18310546875,7.8125,-38.6962890625,-0.28125,-1.12060546875,0.220703125
660,-5.2490234375,8.23974609375,-41.6259765625,-0.20751953125,-1.08984375,0.28759765625
661,-1.40380859375,8.056640625,-44.86083984375,-0.19921875,-1.04248046875,0.33984375
662,-2.13623046875,8.1787109375,-46.9970703125,-0.21142578125,-1.08544921875,0.2724609375
663,-1.953125,6.591796875,-48.9501953125,-0.216796875,-1.056640625,0.29736328125
664,-1.40380859375,5.126953125,-51.33056640625,-0.212890625,-1.103515625,0.21826171875
665,-0.732421875,8.48388671875,-54.8095703125,-0.15625,-1.1162109375,0.2978515625
666,1.40380859375,12.6953125,-61.767578125,-0.17431640625,-1.15673828125,0.19140625
667,1.8310546875,7.01904296875,-64.02587890625,-0.1943359375,-1.11474609375,0.31494140625
668,5.126953125,7.26318359375,-69.3359375,-0.2158203125,-1.14990234375,0.2822265625
669,4.150390625,6.65283203125,-73.91357421875,-0.1962890625,-1.150390625,0.2958984375
670,5.06591796875,4.33349609375,-78.857421875,-0.26611328125,-1.205078125,0.32861328125
671,6.591796875,1.5869140625,-85.26611328125,-0.205078125,-1.23291015625,0.2802734375
672,7.87353515625,-0.6103515625,-93.81103515625,-0.27392578125,-1.25732421875,0.29248046875
673,8.72802734375,-3.72314453125,-103.3935546875,-0.2275390625,-1.27587890625,0.3515625
674,4.57763671875,-12.451171875,-112.12158203125,-0.2470703125,-1.2294921875,0.46240234375
675,-2.99072265625,-16.17431640625,-123.53515625,-0.33203125,-1.310546875,0.4326171875
676,-5.2490234375,-23.4375,-140.68603515625,-0.4052734375,-1.505859375,0.32275390625
677,-0.6103515625,-26.3671875,-162.7197265625,-0.46728515625,-1.6865234375,0.32568359375
678,10.986328125,-34.24072265625,-187.07275390625,-0.44775390625,-1.61767578125,0.25634765625
679,14.09912109375,-41.259765625,-209.04541015625,-0.44091796875,-1.91357421875,0.30029296875
680,27.16064453125,-47.119140625,-240.478515625,-0.5869140625,-1.91162109375,-0.0029296875
681,31.55517578125,-42.236328125,-272.5830078125,-0.416015625,-1.88330078125,0.0419921875
682,44.12841796875,-38.51318359375,-303.40576171875,-0.52587890625,-2.06396484375,-0.08984375
683,47.05810546875,-29.052734375,-343.07861328125,-0.3603515625,-2.12060546875,-0.099609375
684,49.6826171875,-8.60595703125,-382.14111328125,-0.5693359375,-2.61328125,-0.1279296875
685,71.22802734375,-19.59228515625,-414.6728515625,-0.3564453125,-2.52490234375,-0.18603515625
686,62.56103515625,7.87353515625,-440.0634765625,-0.16796875,-3.01611328125,0.22705078125
687,43.88427734375,34.7900390625,-480.712890625,-0.36328125,-2.38427734375,0.53271484375
688,48.03466796875,33.87451171875,-468.505859375,-0.3623046875,-3.87646484375,-0.193359375
689,117.12646484375,23.13232421875,-456.0546875,-0.517578125,-4.09521484375,-0.53515625
690,151.06201171875,49.49951171875,-454.40673828125,-1.29248046875,-2.98486328125,-0.73779296875
691,190.24658203125,68.66455078125,-425.10986328125,-1.63525390625,-1.7119140625,-0.97509765625
692,215.8203125,75.5615234375,-400.69580078125,0.12548828125,-0.5615234375,-1.16259765625
693,108.642578125,82.03125,-179.01611328125,0.22509765625,1.13427734375,0.22998046875
694,-2.99072265625,94.17724609375,-18.06640625,-0.48486328125,-0.11962890625,-0.0576171875
695,-35.82763671875,92.71240234375,98.0224609375,-0.72265625,-1.09619140625,-0.45068359375
696,-38.9404296875,80.078125,158.26416015625,-1.03271484375,-1.0302734375,-0.31787109375
697,-19.71435546875,55.6640625,177.001953125,-1.35986328125,-1.05712890625,-0.51708984375
698,-3.60107421875,37.2314453125,183.9599609375,-1.0654296875,-0.6015625,-0.2734375
699,-8.36181640625,23.13232421875,191.7724609375,-0.89013671875,-0.34423828125,-0.1982421875
700,-22.64404296875,14.46533203125,196.59423828125,-0.8056640625,-0.24658203125,-0.14111328125
701,-46.2646484375,10.3759765625,201.23291015625,-0.6787109375,-0.14404296875,-0.07177734375
702,-76.416015625,9.94873046875,208.92333984375,-0.576171875,-0.10205078125,-0.02490234375
703,-103.6376953125,11.90185546875,220.458984375,-0.53369140625,-0.21826171875,-0.04931640625
704,-120.1171875,13.61083984375,232.36083984375,-0.50634765625,-0.37890625,-0.04443359375
705,-128.84521484375,14.892578125,245.361328125,-0.49169921875,-0.53271484375,-0.03515625
706,-131.7138671875,15.9912109375,256.40869140625,-0.48388671875,-0.677734375,-0.0029296875
707,-131.16455078125,16.9677734375,265.5029296875,-0.45361328125,-0.7783203125,0.021484375
708,-130.859375,19.53125,275.57373046875,-0.4150390625,-0.84521484375,0.056640625
709,-129.82177734375,21.728515625,288.2080078125,-0.37353515625,-0.94140625,0.07373046875
710,-127.25830078125,25.7568359375,300.9033203125,-0.34326171875,-1.0751953125,0.09619140625
711,-124.45068359375,31.25,314.14794921875,-0.31201171875,-1.18310546875,0.1064453125
712,-124.08447265625,37.353515625,325.98876953125,-0.29248046875,-1.2431640625,0.154296875
713,-129.638671875,44.37255859375,334.1064453125,-0.294921875,-1.25341796875,0.20556640625
714,-141.17431640625,53.52783203125,338.92822265625,-0.3076171875,-1.310546875,0.2578125
715,-155.70068359375,61.09619140625,339.9658203125,-0.34912109375,-1.40625,0.29833984375
716,-170.654296875,66.71142578125,337.7685546875,-0.4033203125,-1.5380859375,0.33447265625
717,-183.89892578125,67.9931640625,334.89990234375,-0.45849609375,-1.75830078125,0.35986328125
718,-192.7490234375,62.43896484375,337.09716796875,-0.52685546875,-2.01318359375,0.39892578125
719,-197.69287109375,49.6826171875,344.29931640625,-0.5498046875,-2.29638671875,0.486328125
720,-197.75390625,33.203125,354.43115234375,-0.46484375,-2.50927734375,0.65625
721,-196.4111328125,15.7470703125,365.1123046875,-0.1875,-2.763671875,0.81103515625
722,-196.044921875,0.48828125,370.30029296875,0.18896484375,-2.97314453125,1.0654296875
723,-197.265625,-16.54052734375,369.20166015625,0.529296875,-3.16943359375,1.3388671875
724,-152.9541015625,-40.71044921875,366.5771484375,0.95556640625,-3.833984375,0.86865234375
725,-68.115234375,-66.83349609375,363.6474609375,1.7490234375,-4.03515625,0.68408203125
726,11.3525390625,-73.974609375,342.4072265625,2.57958984375,-3.69970703125,0.66552734375
727,62.92724609375,-55.84716796875,304.38232421875,3.7080078125,-3.1083984375,0.587890625
728,40.95458984375,-11.65771484375,233.7646484375,4.49365234375,-1.4521484375,1.27587890625
729,-79.2236328125,49.6826171875,121.15478515625,4.37890625,-0.2412109375,1.84716796875
730,-184.99755859375,85.26611328125,-1.28173828125,3.53857421875,-0.6708984375,1.96923828125
731,-223.20556640625,288.39111328125,-288.2080078125,-5.1708984375,-15.994140625,3.61376953125
732,91.00341796875,-51.26953125,-325.62255859375,3.3662109375,-1.84326171875,3.39794921875
733,281.1279296875,-101.07421875,-266.357421875,-0.7939453125,-1.51904296875,-4.1123046875
734,293.3349609375,-65.5517578125,-227.35595703125,-2.177734375,-2.845703125,-0.64306640625
735,209.77783203125,-129.94384765625,-235.29052734375,-1.32666015625,-0.04736328125,1.365234375
736,93.994140625,-53.89404296875,-253.5400390625,-0.18115234375,0.0576171875,1.9013671875
737,53.77197265625,-133.72802734375,-234.43603515625,-0.35595703125,-1.3876953125,0.31103515625
738,43.5791015625,-106.4453125,-212.58544921875,0.419921875,-1.06298828125,1.00439453125
739,26.123046875,-38.6962890625,-183.89892578125,0.7666015625,-1.24560546875,0.966796875
740,16.78466796875,-7.6904296875,-165.22216796875,0.04150390625,-1.09326171875,0.607421875
741,7.6904296875,6.40869140625,-146.78955078125,-0.05712890625,-1.51806640625,0.1640625
742,13.24462890625,-32.28759765625,-91.49169921875,0.5244140625,-2.6767578125,-0.28173828125
743,22.5830078125,-35.09521484375,-25.2685546875,1.40087890625,-0.6806640625,0.375
744,60.9130859375,-59.4482421875,-6.4697265625,-0.29931640625,-1.4287109375,0.19091796875
745,68.84765625,-56.70166015625,-4.7607421875,-0.14501953125,-0.91943359375,0.28662109375
746,54.0771484375,-59.14306640625,-4.638671875,-0.2568359375,-0.9736328125,0.21826171875
747,43.45703125,-55.7861328125,-1.15966796875,-0.16357421875,-1.01611328125,0.30126953125
748,36.7431640625,-44.37255859375,-1.89208984375,-0.19775390625,-1.0439453125,0.2685546875
749,34.5458984375,-34.0576171875,-3.47900390625,-0.20947265625,-1.08984375,0.1669921875
750,33.50830078125,-20.01953125,-3.2958984375,-0.18896484375,-0.9912109375,0.33203125
751,21.8505859375,-19.1650390625,-2.5634765625,-0.1572265625,-0.91748046875,0.46142578125
752,13.0615234375,-14.46533203125,-3.35693359375,-0.220703125,-0.9892578125,0.34326171875
753,9.09423828125,-11.53564453125,-5.18798828125,-0.21435546875,-1.01904296875,0.29736328125
754,6.8359375,-7.75146484375,-6.8359375,-0.212890625,-1.03271484375,0.2802734375
755,4.0283203125,-7.26318359375,-7.87353515625,-0.22900390625,-1.009765625,0.30322265625
756,-0.6103515625,-6.591796875,-8.9111328125,-0.22705078125,-0.9892578125,0.3203125
757,-2.74658203125,-7.01904296875,-8.97216796875,-0.212890625,-1.05224609375,0.25390625
758,1.3427734375,-2.44140625,-10.009765625,-0.19775390625,-1.10791015625,0.1513671875
759,6.65283203125,0.8544921875,-10.986328125,-0.19384765625,-1.08251953125,0.22705078125
760,6.9580078125,1.52587890625,-11.23046875,-0.18212890625,-1.0205078125,0.2724609375
761,5.37109375,1.28173828125,-10.55908203125,-0.1865234375,-1.00537109375,0.30322265625
762,2.86865234375,0.91552734375,-10.43701171875,-0.19580078125,-1.03515625,0.3251953125
763,1.0986328125,-2.62451171875,-9.3994140625,-0.21435546875,-1.0400390625,0.26904296875
764,-0.9765625,-4.7607421875,-9.1552734375,-0.185546875,-1.02978515625,0.2822265625
765,3.35693359375,3.84521484375,-15.2587890625,-0.3662109375,-1.30908203125,0.330078125
766,-3.662109375,0.244140625,-19.53125,-0.16845703125,-1.04345703125,0.25439453125
767,-3.7841796875,6.04248046875,-24.7802734375,-0.25439453125,-1.17578125,0.33447265625
768,-0.91552734375,4.82177734375,-32.8369140625,-0.37548828125,-1.09228515625,0.5517578125
769,-14.5263671875,4.7607421875,-39.12353515625,-0.203125,-1.111328125,0.1982421875
770,-15.31982421875,6.89697265625,-44.25048828125,-0.2509765625,-1.18505859375,0.28076171875
771,-10.1318359375,7.26318359375,-49.4384765625,-0.20263671875,-1.08544921875,0.30712890625
772,-11.41357421875,8.97216796875,-53.40576171875,-0.22265625,-1.0595703125,0.30029296875
773,-13.916015625,9.1552734375,-55.48095703125,-0.16455078125,-1.04248046875,0.30322265625
774,-14.58740234375,7.4462890625,-56.82373046875,-0.15966796875,-1.06201171875,0.2822265625
775,-13.18359375,7.080078125,-57.18994140625,-0.171875,-1.06396484375,0.24951171875
776,-12.20703125,4.2724609375,-58.77685546875,-0.18359375,-1.109375,0.2421875
777,-11.71875,6.16455078125,-61.767578125,-0.150390625,-1.126953125,0.2607421875
778,-7.87353515625,6.04248046875,-67.0166015625,-0.1767578125,-1.19580078125,0.20166015625
779,-3.35693359375,8.48388671875,-72.509765625,-0.14404296875,-1.18017578125,0.20556640625
780,-0.42724609375,7.99560546875,-79.2236328125,-0.21142578125,-1.234375,0.29248046875
781,0.67138671875,6.53076171875,-85.02197265625,-0.20849609375,-1.224609375,0.31103515625
782,4.638671875,0.244140625,-91.30859375,-0.32666015625,-1.220703125,0.33349609375
783,2.62451171875,-2.9296875,-100.28076171875,-0.21728515625,-1.27490234375,0.3388671875
784,0.18310546875,-9.33837890625,-108.45947265625,-0.20703125,-1.21875,0.4140625
785,-8.30078125,-18.12744140625,-117.0654296875,-0.2451171875,-1.20068359375,0.47509765625
786,-15.0146484375,-23.37646484375,-131.53076171875,-0.3701171875,-1.40869140625,0.41650390625
787,-16.11328125,-27.52685546875,-154.60205078125,-0.42431640625,-1.59228515625,0.326171875
788,-9.033203125,-27.03857421875,-181.94580078125,-0.45458984375,-1.68310546875,0.14453125
789,4.2724609375,-32.28759765625,-209.3505859375,-0.57470703125,-1.8017578125,0.0126953125
790,13.18359375,-34.60693359375,-236.02294921875,-0.53466796875,-1.916015625,0.20703125
791,26.7333984375,-36.07177734375,-273.8037109375,-0.58642578125,-1.96630859375,-0.05859375
792,33.14208984375,-23.92578125,-314.3310546875,-0.484375,-2.00244140625,-0.0849609375
793,31.73828125,-12.63427734375,-351.86767578125,-0.49609375,-2.11767578125,-0.1279296875
794,16.29638671875,8.48388671875,-393.06640625,-0.21240234375,-2.43212890625,0.1376953125
795,33.87451171875,5.9814453125,-433.837890625,-0.6953125,-2.83154296875,-0.3427734375
796,21.8505859375,15.7470703125,-464.90478515625,0.1025390625,-2.88330078125,0.2421875
797,0.3662109375,36.62109375,-499.51171875,-0.45556640625,-2.75439453125,0.50390625
798,25.81787109375,22.03369140625,-479.30908203125,-0.41796875,-4.03955078125,-0.3037109375
799,105.1025390625,12.75634765625,-467.95654296875,-0.50439453125,-4.181640625,-0.3154296875
800,196.71630859375,25.146484375,-456.1767578125,-1.2060546875,-3.208984375,-0.9462890625
801,234.68017578125,39.36767578125,-434.5703125,-2.05517578125,-1.99755859375,-1.5869140625
802,238.525390625,66.95556640625,-450.8056640625,-1.36376953125,-0.7587890625,-1.0126953125
803,150.2685546875,81.6650390625,-260.6201171875,0.5634765625,1.03271484375,-0.04443359375
804,17.822265625,103.21044921875,-71.77734375,-0.23046875,0.8193359375,-0.0869140625
805,-59.99755859375,117.12646484375,69.3359375,-0.6826171875,-0.55419921875,-0.47119140625
806,-84.53369140625,105.16357421875,156.31103515625,-1.03369140625,-0.86328125,-0.2548828125
807,-81.0546875,89.111328125,199.21875,-1.197265625,-1.07177734375,-0.431640625
808,-51.45263671875,63.1103515625,214.29443359375,-1.3857421875,-1.1708984375,-0.5732421875
809,-23.3154296875,43.3349609375,221.49658203125,-1.0546875,-0.69384765625,-0.23681640625
810,-16.90673828125,28.38134765625,231.75048828125,-0.8681640625,-0.5390625,-0.1982421875
811,-15.5029296875,16.4794921875,241.8212890625,-0.77685546875,-0.49072265625,-0.130859375
812,-23.3154296875,9.521484375,252.5634765625,-0.62109375,-0.40673828125,-0.06396484375
813,-39.12353515625,6.65283203125,265.13671875,-0.509765625,-0.35791015625,-0.02783203125
814,-59.2041015625,8.056640625,280.45654296875,-0.43408203125,-0.40283203125,-0.02587890625
815,-77.7587890625,9.58251953125,294.7998046875,-0.423828125,-0.513671875,-0.02392578125
816,-91.61376953125,11.41357421875,307.80029296875,-0.43359375,-0.6416015625,0.00341796875
817,-99.79248046875,13.73291015625,318.4814453125,-0.41015625,-0.82763671875,-0.0498046875
818,-102.5390625,15.0146484375,328.06396484375,-0.3896484375,-0.95263671875,-0.04443359375
819,-102.783203125,17.333984375,336.9140625,-0.35400390625,-1.03759765625,-0.0380859375
820,-103.82080078125,20.32470703125,344.05517578125,-0.33984375,-1.140625,-0.01904296875
821,-106.93359375,24.84130859375,348.14453125,-0.31640625,-1.2314453125,-0.0048828125
822,-113.525390625,30.029296875,349.853515625,-0.29541015625,-1.31396484375,0.02490234375
823,-122.6806640625,35.94970703125,351.37939453125,-0.27294921875,-1.42236328125,0.0576171875
824,-132.50732421875,41.259765625,352.294921875,-0.25830078125,-1.53564453125,0.08251953125
825,-143.310546875,46.69189453125,351.9287109375,-0.29296875,-1.6943359375,0.10107421875
826,-151.30615234375,50.4150390625,350.5859375,-0.3193359375,-1.9150390625,0.125
827,-158.38623046875,52.42919921875,349.30419921875,-0.3447265625,-2.13525390625,0.1630859375
828,-168.3349609375,47.54638671875,349.91455078125,-0.373046875,-2.42431640625,0.2197265625
829,-175.35400390625,37.41455078125,356.93359375,-0.283203125,-2.76318359375,0.26513671875
830,-183.04443359375,35.21728515625,369.07958984375,0.15185546875,-2.32421875,0.90380859375
831,-234.86328125,36.19384765625,377.197265625,0.5087890625,-2.62451171875,0.79931640625
832,-250.06103515625,31.005859375,385.8642578125,0.97509765625,-3.21240234375,0.85888671875
833,-220.5810546875,9.765625,387.6953125,1.17431640625,-3.72705078125,0.76123046875
834,-168.3349609375,-8.23974609375,366.14990234375,1.5615234375,-3.69482421875,1.00341796875
835,-108.45947265625,-23.13232421875,329.40673828125,2.16015625,-3.55517578125,0.9375
836,-51.025390625,-16.54052734375,280.029296875,3.1171875,-2.8330078125,1.10009765625
837,-48.15673828125,13.18359375,215.087890625,4.1064453125,-1.8349609375,1.55126953125
838,-88.92822265625,51.513671875,127.99072265625,4.29638671875,-1.5185546875,1.9208984375
839,-110.65673828125,69.580078125,29.72412109375,3.72119140625,-1.69873046875,1.99951171875
840,-81.84814453125,63.4765625,-55.23681640625,2.73974609375,-2.3515625,1.95068359375
841,262.26806640625,-107.177734375,-262.5732421875,2.82861328125,-1.31884765625,5.1591796875
842,312.255859375,10.1318359375,-249.8779296875,-0.7763671875,-1.2236328125,-4.44580078125
843,355.04150390625,-32.958984375,-203.369140625,0.20947265625,-1.744140625,1.017578125
844,268.73779296875,-153.50341796875,-209.65576171875,-1.61083984375,-0.25244140625,1.4912109375
845,143.1884765625,-94.7265625,-256.103515625,-0.51220703125,0.84326171875,2.06640625
846,41.8701171875,-126.52587890625,-255.55419921875,-0.25341796875,-0.8203125,0.76708984375
847,37.90283203125,-134.33837890625,-233.5205078125,0.07861328125,-1.216796875,0.802734375
848,31.6162109375,-76.72119140625,-204.1015625,0.4345703125,-1.78369140625,1.0888671875
849,18.6767578125,9.33837890625,-182.55615234375,0.26953125,-1.4375,0.79052734375
850,9.3994140625,42.05322265625,-166.50390625,-0.0849609375,-1.2158203125,0.37060546875
851,18.85986328125,13.3056640625,-120.1171875,0.0546875,-1.4560546875,-0.38232421875
852,27.52685546875,-45.59326171875,-65.00244140625,0.2607421875,-1.15576171875,-0.03662109375
853,37.53662109375,-79.52880859375,-8.97216796875,0.32275390625,-1.03955078125,0.23828125
854,58.89892578125,-56.21337890625,-6.53076171875,-0.09326171875,-1.005859375,0.20263671875
855,56.57958984375,-49.31640625,-3.84521484375,-0.22607421875,-0.99560546875,0.37646484375
856,45.7763671875,-48.828125,-1.64794921875,-0.22509765625,-1.03125,0.265625
857,35.0341796875,-40.8935546875,-1.953125,-0.2451171875,-0.99609375,0.21240234375
858,36.4990234375,-31.31103515625,-2.685546875,-0.31689453125,-1.0849609375,0.05810546875
859,38.330078125,-22.8271484375,-2.86865234375,-0.185546875,-1.09814453125,0.1787109375
860,32.53173828125,-21.05712890625,-3.5400390625,-0.2294921875,-0.93310546875,0.38818359375
861,15.380859375,-11.474609375,-2.99072265625,-0.15185546875,-0.91015625,0.513671875
862,7.2021484375,-8.23974609375,-4.0283203125,-0.2587890625,-1.0380859375,0.251953125
863,6.40869140625,-5.2490234375,-6.28662109375,-0.201171875,-1.03125,0.28125
864,5.126953125,-3.90625,-7.568359375,-0.23828125,-1.0263671875,0.25537109375
865,0.8544921875,-6.103515625,-7.4462890625,-0.22119140625,-0.97607421875,0.35302734375
866,-3.35693359375,-6.2255859375,-7.87353515625,-0.22314453125,-1.0302734375,0.2783203125
867,-0.30517578125,-3.662109375,-9.765625,-0.208984375,-1.11669921875,0.166015625
868,7.26318359375,-0.67138671875,-10.68115234375,-0.1982421875,-1.12158203125,0.13818359375
869,11.65771484375,-0.48828125,-12.51220703125,-0.21337890625,-1.08154296875,0.197265625
870,12.3291015625,-1.5869140625,-12.20703125,-0.1767578125,-1.033203125,0.2685546875
871,10.55908203125,-3.662109375,-12.02392578125,-0.21630859375,-0.99609375,0.33837890625
872,6.7138671875,-5.9814453125,-11.1083984375,-0.2041015625,-1.01025390625,0.28466796875
873,1.52587890625,-5.92041015625,-10.3759765625,-0.19873046875,-1.005859375,0.326171875
874,1.220703125,-3.2958984375,-11.962890625,-0.23095703125,-1.08642578125,0.26220703125
875,2.197265625,0.1220703125,-15.80810546875,-0.240234375,-1.0771484375,0.2802734375
876,-9.27734375,-0.732421875,-20.20263671875,-0.1240234375,-0.966796875,0.31689453125
877,-12.75634765625,-0.1220703125,-23.49853515625,-0.1533203125,-1.01611328125,0.26953125
878,-10.68115234375,2.5634765625,-31.494140625,-0.39013671875,-1.3203125,0.54638671875
879,-17.27294921875,-0.244140625,-38.57421875,-0.15771484375,-0.99462890625,0.26123046875
880,-15.625,4.39453125,-43.27392578125,-0.25732421875,-1.166015625,0.27978515625
881,-14.22119140625,5.37109375,-45.7763671875,-0.203125,-1.13818359375,0.24169921875
882,-12.6953125,4.21142578125,-49.1943359375,-0.20166015625,-1.02734375,0.36474609375
883,-13.00048828125,3.2958984375,-50.47607421875,-0.20068359375,-1.04931640625,0.318359375
884,-16.05224609375,0.8544921875,-51.45263671875,-0.1533203125,-1.05859375,0.29248046875
885,-14.16015625,-0.6103515625,-52.1240234375,-0.17333984375,-1.09228515625,0.2451171875
886,-14.2822265625,0.67138671875,-55.908203125,-0.2177734375,-1.14892578125,0.2568359375
887,-11.5966796875,5.37109375,-62.56103515625,-0.15234375,-1.1748046875,0.2451171875
888,-5.615234375,6.53076171875,-70.12939453125,-0.2578125,-1.23046875,0.22216796875
889,-4.45556640625,9.58251953125,-78.61328125,-0.2041015625,-1.21337890625,0.22119140625
890,-4.57763671875,8.85009765625,-87.0361328125,-0.2490234375,-1.23291015625,0.3271484375
891,-3.60107421875,7.87353515625,-95.39794921875,-0.25927734375,-1.2998046875,0.3232421875
892,4.33349609375,0.244140625,-100.15869140625,-0.3662109375,-1.3037109375,0.28662109375
893,-3.35693359375,-7.75146484375,-109.06982421875,-0.2646484375,-1.1796875,0.38037109375
894,-10.31494140625,-15.5029296875,-117.49267578125,-0.2587890625,-1.24267578125,0.423828125
895,-16.29638671875,-18.61572265625,-129.33349609375,-0.20166015625,-1.30517578125,0.33349609375
896,-16.54052734375,-21.17919921875,-147.94921875,-0.31494140625,-1.52294921875,0.29638671875
897,-8.85009765625,-15.380859375,-176.45263671875,-0.451171875,-1.69140625,0.2099609375
898,5.4931640625,-17.39501953125,-203.7353515625,-0.44189453125,-1.80712890625,0.021484375
899,22.15576171875,-23.01025390625,-228.515625,-0.44873046875,-1.82177734375,0.14697265625
900,28.01513671875,-22.52197265625,-263.48876953125,-0.59814453125,-1.82763671875,-0.0400390625
901,27.89306640625,-24.658203125,-301.26953125,-0.4658203125,-1.8642578125,0.20947265625
902,26.18408203125,-10.7421875,-341.36962890625,-0.486328125,-1.93359375,-0.0849609375
903,5.92041015625,7.6904296875,-379.45556640625,-0.2548828125,-1.96337890625,0.15380859375
904,-0.30517578125,16.90673828125,-415.58837890625,-0.474609375,-2.64208984375,0.15966796875
905,-14.2822265625,17.15087890625,-456.72607421875,-0.03369140625,-2.6669921875,0.2685546875
906,-49.37744140625,39.306640625,-489.44091796875,-0.48193359375,-2.8662109375,0.74267578125
907,-1.5869140625,22.705078125,-480.89599609375,-0.24951171875,-3.8876953125,-0.333984375
908,92.83447265625,-5.4931640625,-453.369140625,-0.4111328125,-3.98583984375,-0.455078125
909,192.3828125,0.8544921875,-436.70654296875,-1.41015625,-3.61083984375,-1.21923828125
910,261.41357421875,21.91162109375,-431.5185546875,-2.10205078125,-2.6640625,-1.40576171875
911,311.279296875,36.7431640625,-432.43408203125,-1.982421875,-1.08154296875,-1.38671875
912,264.7705078125,43.64013671875,-345.39794921875,0.50439453125,0.37109375,-0.595703125
913,101.318359375,74.64599609375,-138.7939453125,0.58251953125,1.29150390625,-0.0068359375
914,-20.01953125,106.201171875,23.86474609375,-0.330078125,0.08935546875,-0.25732421875
915,-71.77734375,112.060546875,128.72314453125,-0.7431640625,-0.73193359375,-0.42822265625
916,-90.087890625,103.3935546875,184.75341796875,-1.06640625,-1.00830078125,-0.31884765625
917,-61.09619140625,84.16748046875,203.91845703125,-1.36572265625,-1.37255859375,-0.669921875
918,-8.30078125,57.80029296875,210.51025390625,-1.1494140625,-1.02294921875,-0.47265625
919,14.0380859375,41.748046875,221.0693359375,-0.86865234375,-0.638671875,-0.29736328125
920,24.35302734375,27.83203125,234.06982421875,-0.76025390625,-0.55078125,-0.24658203125
921,26.2451171875,17.88330078125,247.1923828125,-0.6328125,-0.4794921875,-0.18994140625
922,14.46533203125,13.427734375,261.962890625,-0.486328125,-0.349609375,-0.1123046875
923,-6.65283203125,12.87841796875,278.74755859375,-0.3994140625,-0.318359375,-0.11279296875
924,-30.2734375,14.6484375,293.02978515625,-0.36669921875,-0.38916015625,-0.11328125
925,-52.79541015625,17.333984375,304.0771484375,-0.357421875,-0.4970703125,-0.10107421875
926,-70.80078125,18.24951171875,313.4765625,-0.365234375,-0.66455078125,-0.126953125
927,-83.43505859375,18.49365234375,319.15283203125,-0.361328125,-0.828125,-0.1455078125
928,-90.6982421875,17.27294921875,325.13427734375,-0.34423828125,-0.9365234375,-0.154296875
929,-96.0693359375,16.05224609375,333.8623046875,-0.3056640625,-1.0126953125,-0.13330078125
930,-101.13525390625,15.7470703125,342.041015625,-0.2861328125,-1.140625,-0.1171875
931,-105.04150390625,16.11328125,348.32763671875,-0.265625,-1.283203125,-0.107421875
932,-111.02294921875,18.73779296875,351.6845703125,-0.23828125,-1.373046875,-0.07958984375
933,-120.2392578125,23.62060546875,353.21044921875,-0.2041015625,-1.45556640625,-0.046875
934,-133.48388671875,30.94482421875,352.783203125,-0.19580078125,-1.5673828125,-0.029296875
935,-148.25439453125,38.2080078125,350.76904296875,-0.2158203125,-1.705078125,0.00927734375
936,-164.97802734375,45.7763671875,347.2900390625,-0.24169921875,-1.92138671875,0.009765625
937,-180.48095703125,50.35400390625,345.52001953125,-0.24462890625,-2.1826171875,0.05712890625
938,-195.1904296875,50.1708984375,349.853515625,-0.19775390625,-2.4736328125,0.0927734375
939,-204.52880859375,43.76220703125,364.68505859375,-0.07421875,-2.8642578125,0.1435546875
940,-195.4345703125,33.87451171875,389.22119140625,0.3037109375,-3.1005859375,0.0166015625
941,-243.65234375,45.2880859375,389.892578125,0.5244140625,-2.357421875,0.91357421875
942,-256.28662109375,43.39599609375,385.3759765625,1.03759765625,-3.2587890625,0.61083984375
943,-225.64697265625,28.62548828125,374.69482421875,1.38623046875,-3.62353515625,0.78466796875
944,-190.36865234375,19.10400390625,342.95654296875,1.7333984375,-3.5322265625,0.96728515625
945,-144.8974609375,11.8408203125,296.2646484375,2.2529296875,-3.26220703125,0.84619140625
946,-111.51123046875,23.98681640625,241.455078125,3.2275390625,-2.35791015625,1.185546875
947,-131.8359375,55.60302734375,174.49951171875,4.02001953125,-1.42041015625,1.75537109375
948,-180.6640625,84.89990234375,85.87646484375,3.90185546875,-1.49462890625,2.015625
949,-179.931640625,84.53369140625,-7.2021484375,3.396484375,-2.103515625,2.1455078125
950,-109.68017578125,59.9365234375,-75.01220703125,2.814453125,-2.796875,1.85107421875
951,65.97900390625,338.68408203125,-349.67041015625,-8.23583984375,-16.0,3.5712890625
952,255.9814453125,-92.6513671875,-221.923828125,1.97412109375,4.59765625,3.57861328125
953,480.16357421875,-97.2900390625,-153.50341796875,0.55126953125,-3.09765625,-1.52001953125
954,399.59716796875,-185.05859375,-134.033203125,-2.12060546875,-2.1455078125,-1.49853515625
955,226.318359375,-155.2734375,-208.31298828125,-1.0380859375,1.8037109375,2.6640625
956,81.298828125,-152.587890625,-251.77001953125,-0.724609375,0.6298828125,1.728515625
957,30.09033203125,-167.6025390625,-245.78857421875,0.20263671875,-1.0361328125,1.16064453125
958,24.90234375,-102.23388671875,-218.994140625,0.669921875,-1.39306640625,1.076171875
959,16.11328125,-9.58251953125,-200.68359375,0.681640625,-1.0712890625,1.1240234375
960,3.5400390625,15.869140625,-179.01611328125,0.1796875,-1.16455078125,0.72265625
961,0.732421875,7.62939453125,-141.9677734375,0.18310546875,-1.89404296875,-0.1591796875
962,15.625,-26.85546875,-99.42626953125,0.0390625,-1.4033203125,-0.25439453125
963,21.05712890625,-56.15234375,-59.14306640625,0.091796875,-1.42431640625,-0.04931640625
964,43.212890625,-74.64599609375,-16.41845703125,0.04541015625,-1.40625,-0.01953125
965,55.48095703125,-55.11474609375,-8.056640625,-0.29150390625,-1.16455078125,0.2783203125
966,59.5703125,-57.2509765625,-4.94384765625,-0.0400390625,-1.1572265625,0.23974609375
967,60.791015625,-48.2177734375,-4.45556640625,-0.2470703125,-1.1103515625,0.20166015625
968,56.396484375,-39.73388671875,-4.150390625,-0.138671875,-1.0966796875,0.19775390625
969,55.35888671875,-26.79443359375,-4.69970703125,-0.23291015625,-1.03271484375,0.22998046875
970,43.27392578125,-28.50341796875,-4.8828125,-0.189453125,-0.95556640625,0.40380859375
971,26.4892578125,-23.3154296875,-4.7607421875,-0.2099609375,-0.9423828125,0.4111328125
972,20.6298828125,-24.2919921875,-5.79833984375,-0.248046875,-1.02392578125,0.23291015625
973,13.671875,-14.0380859375,-8.056640625,-0.23681640625,-0.98974609375,0.34912109375
974,12.14599609375,-12.14599609375,-8.056640625,-0.203125,-1.0234375,0.3017578125
975,3.23486328125,-9.82666015625,-7.6904296875,-0.193359375,-0.9716796875,0.3671875
976,-1.220703125,-7.38525390625,-8.30078125,-0.22119140625,-1.04443359375,0.27587890625
977,-0.732421875,-4.69970703125,-9.82666015625,-0.22802734375,-1.08154296875,0.20849609375
978,6.103515625,-1.89208984375,-11.04736328125,-0.22265625,-1.1201171875,0.12255859375
979,12.5732421875,-0.91552734375,-13.5498046875,-0.21875,-1.09033203125,0.177734375
980,14.0380859375,-2.74658203125,-11.90185546875,-0.1865234375,-1.0205078125,0.27099609375
981,9.58251953125,-4.7607421875,-11.71875,-0.20458984375,-1.00341796875,0.3310546875
982,7.080078125,-7.87353515625,-10.25390625,-0.2138671875,-1.02197265625,0.2919921875
983,4.0283203125,-8.544921875,-9.521484375,-0.1806640625,-1.03271484375,0.2822265625
984,3.5400390625,-5.31005859375,-12.02392578125,-0.22607421875,-1.10986328125,0.2822265625
985,8.9111328125,-0.1220703125,-16.4794921875,-0.193359375,-1.037109375,0.29052734375
986,0.06103515625,-1.8310546875,-20.20263671875,-0.21044921875,-1.03955078125,0.28125
987,5.67626953125,6.591796875,-24.169921875,-0.28955078125,-1.19677734375,0.21875
988,1.03759765625,8.1787109375,-26.85546875,-0.14111328125,-1.0810546875,0.16455078125
989,-1.953125,7.62939453125,-34.1796875,-0.29931640625,-1.052734375,0.60693359375
990,-5.31005859375,9.58251953125,-38.75732421875,-0.248046875,-1.2607421875,0.13720703125
991,-5.9814453125,9.70458984375,-43.76220703125,-0.20458984375,-1.044921875,0.33984375
992,-4.150390625,12.02392578125,-47.8515625,-0.19873046875,-1.09521484375,0.28759765625
993,-4.8828125,12.451171875,-50.47607421875,-0.189453125,-0.998046875,0.37646484375
994,-8.97216796875,10.55908203125,-51.08642578125,-0.17333984375,-1.0126953125,0.3291015625
995,-10.68115234375,9.1552734375,-52.490234375,-0.17626953125,-1.060546875,0.294921875
996,-10.19287109375,6.8359375,-55.35888671875,-0.21533203125,-1.14794921875,0.29638671875
997,-7.14111328125,7.75146484375,-60.1806640625,-0.15380859375,-1.140625,0.19921875
998,-2.44140625,5.2490234375,-63.78173828125,-0.193359375,-1.134765625,0.17138671875
999,-1.40380859375,8.85009765625,-68.42041015625,-0.18017578125,-1.16455078125,0.29443359375
1000,-0.3662109375,7.75146484375,-73.79150390625,-0.19580078125,-1.2060546875,0.28125
1001,3.41796875,9.6435546875,-80.62744140625,-0.19189453125,-1.29248046875,0.27587890625
1002,10.7421875,3.96728515625,-87.158203125,-0.26220703125,-1.29443359375,0.29541015625
1003,9.70458984375,-1.708984375,-94.8486328125,-0.2666015625,-1.23388671875,0.39453125
1004,5.37109375,-9.58251953125,-103.1494140625,-0.25,-1.2607421875,0.4931640625
1005,-0.91552734375,-15.869140625,-112.9150390625,-0.2353515625,-1.27099609375,0.36181640625
1006,-3.7841796875,-20.20263671875,-124.1455078125,-0.26904296875,-1.4013671875,0.27490234375
1007,-2.8076171875,-23.8037109375,-143.49365234375,-0.34765625,-1.6044921875,0.33837890625
1008,8.23974609375,-24.169921875,-169.0673828125,-0.5185546875,-1.83154296875,0.1845703125
1009,21.728515625,-27.4658203125,-199.03564453125,-0.47119140625,-1.75830078125,0.15771484375
1010,32.77587890625,-28.076171875,-226.5625,-0.58056640625,-1.953125,0.15869140625
1011,49.4384765625,-29.23583984375,-263.00048828125,-0.4765625,-1.8857421875,-0.20166015625
1012,42.8466796875,-22.5830078125,-298.9501953125,-0.3798828125,-1.9580078125,-0.046875
1013,39.794921875,-15.380859375,-341.552734375,-0.5595703125,-1.9208984375,-0.03515625
1014,34.7900390625,-0.732421875,-377.3193359375,-0.466796875,-2.416015625,0.15771484375
1015,44.25048828125,4.69970703125,-413.14697265625,-0.5205078125,-2.46337890625,-0.083984375
1016,19.10400390625,14.22119140625,-448.8525390625,0.19189453125,-2.49853515625,0.1376953125
1017,-3.5400390625,41.56494140625,-484.80224609375,-0.5615234375,-2.248046875,0.54150390625
1018,-2.99072265625,35.58349609375,-484.619140625,-0.287109375,-3.5146484375,-0.19091796875
1019,52.30712890625,21.240234375,-457.94677734375,-0.40283203125,-3.70947265625,-0.48291015625
1020,130.06591796875,36.92626953125,-456.11572265625,-1.16748046875,-3.60546875,-0.70068359375
1021,185.05859375,57.06787109375,-446.83837890625,-1.93896484375,-2.4052734375,-0.96533203125
1022,197.998046875,78.857421875,-440.73486328125,-1.98583984375,-1.1572265625,-1.09130859375
1023,181.21337890625,80.6884765625,-323.79150390625,0.72412109375,0.31298828125,-0.8212890625
1024,67.138671875,104.736328125,-111.87744140625,0.203125,1.1357421875,0.07763671875
1025,-14.09912109375,114.3798828125,39.48974609375,-0.51025390625,-0.49267578125,-0.1904296875
1026,-42.66357421875,110.107421875,133.544921875,-0.76171875,-0.857421875,-0.26806640625
1027,-49.13330078125,96.49658203125,179.5654296875,-0.98095703125,-0.83154296875,-0.3017578125
1028,-29.541015625,70.9228515625,192.93212890625,-1.283203125,-0.95654296875,-0.46630859375
1029,-7.4462890625,50.47607421875,198.05908203125,-1.00341796875,-0.60009765625,-0.2412109375
1030,0.18310546875,31.92138671875,203.857421875,-0.81884765625,-0.423828125,-0.1806640625
1031,-2.197265625,18.61572265625,207.763671875,-0.75732421875,-0.30615234375,-0.099609375
1032,-17.51708984375,10.31494140625,211.36474609375,-0.6220703125,-0.18408203125,-0.029296875
1033,-44.0673828125,6.7138671875,216.97998046875,-0.51318359375,-0.1083984375,0.0
1034,-74.64599609375,6.7138671875,224.91455078125,-0.4462890625,-0.12744140625,0.0166015625
1035,-105.5908203125,8.23974609375,236.26708984375,-0.4033203125,-0.2568359375,0.02587890625
1036,-127.8076171875,8.97216796875,249.45068359375,-0.41552734375,-0.45849609375,-0.0009765625
1037,-137.87841796875,7.87353515625,264.2822265625,-0.4169921875,-0.666015625,-0.00341796875
1038,-141.11328125,6.53076171875,280.33447265625,-0.40625,-0.87451171875,0.0029296875
1039,-135.986328125,5.43212890625,296.32568359375,-0.396484375,-1.01708984375,0.00244140625
1040,-127.44140625,4.5166015625,310.6689453125,-0.35888671875,-1.1171875,0.00634765625
1041,-119.07958984375,6.53076171875,323.54736328125,-0.3271484375,-1.19189453125,0.03662109375
1042,-114.31884765625,10.498046875,332.09228515625,-0.28271484375,-1.2734375,0.048828125
1043,-116.88232421875,18.4326171875,337.40234375,-0.23193359375,-1.3046875,0.10986328125
1044,-125.732421875,26.85546875,342.041015625,-0.2177734375,-1.36865234375,0.134765625
1045,-138.0615234375,35.888671875,346.3134765625,-0.23095703125,-1.46240234375,0.185546875
1046,-149.169921875,42.48046875,351.07421875,-0.26953125,-1.64111328125,0.17138671875
1047,-156.6162109375,46.44775390625,353.45458984375,-0.32568359375,-1.83203125,0.18505859375
1048,-163.51318359375,48.7060546875,352.783203125,-0.36083984375,-2.04833984375,0.2138671875
1049,-171.875,45.59326171875,353.94287109375,-0.380859375,-2.2978515625,0.2646484375
1050,-178.40576171875,37.7197265625,359.4970703125,-0.34326171875,-2.6435546875,0.3017578125
1051,-173.9501953125,26.611328125,372.1923828125,-0.04541015625,-2.94873046875,0.22900390625
1052,-195.73974609375,29.9072265625,374.69482421875,0.3134765625,-2.49365234375,0.90380859375
1053,-211.48681640625,27.9541015625,375.30517578125,0.740234375,-3.09814453125,0.55224609375
1054,-192.93212890625,24.169921875,377.5634765625,1.283203125,-3.537109375,0.42626953125
1055,-155.2734375,18.9208984375,370.66650390625,1.814453125,-3.521484375,0.4951171875
1056,-120.66650390625,20.69091796875,341.12548828125,2.32763671875,-3.32421875,0.54833984375
1057,-95.947265625,34.0576171875,275.08544921875,2.80078125,-2.44677734375,0.75732421875
1058,-145.263671875,73.73046875,176.7578125,3.6904296875,-0.5634765625,1.70361328125
1059,-266.66259765625,118.896484375,72.6318359375,3.8779296875,-0.55224609375,2.18896484375
1060,-302.1240234375,127.74658203125,-15.9912109375,3.4580078125,-1.71240234375,2.048828125
1061,-236.26708984375,102.6611328125,-82.275390625,2.86279296875,-2.9130859375,1.814453125
1062,277.03857421875,-92.6513671875,-269.83642578125,1.9365234375,-4.78173828125,2.48095703125
1063,302.1240234375,-74.27978515625,-228.69873046875,0.82763671875,-0.6689453125,-2.41943359375
1064,470.458984375,-74.76806640625,-181.70166015625,0.38134765625,-2.83837890625,-0.15380859375
1065,408.99658203125,-171.44775390625,-110.107421875,-1.3779296875,-1.9091796875,-0.5537109375
1066,258.97216796875,-150.32958984375,-164.794921875,-2.169921875,0.31982421875,-0.09912109375
1067,142.4560546875,-92.8955078125,-212.95166015625,-0.595703125,1.0810546875,2.24853515625
1068,75.50048828125,-165.58837890625,-225.830078125,-0.0029296875,-1.05224609375,1.0595703125
1069,29.4189453125,-100.03662109375,-214.84375,0.40087890625,-1.17138671875,1.31298828125
1070,11.53564453125,-6.7138671875,-182.55615234375,0.6474609375,-1.20751953125,1.025390625
1071,10.31494140625,44.3115234375,-165.95458984375,0.0791015625,-0.8818359375,0.646484375
1072,-6.34765625,43.15185546875,-135.68115234375,0.23974609375,-1.38134765625,0.21435546875
1073,3.72314453125,2.86865234375,-86.12060546875,0.49267578125,-1.42822265625,-0.19189453125
1074,43.3349609375,-84.5947265625,-18.1884765625,0.166015625,-1.37353515625,-0.00634765625
1075,64.8193359375,-59.814453125,-5.79833984375,0.1474609375,-1.11572265625,0.2900390625
1076,67.87109375,-59.4482421875,-2.8076171875,-0.259765625,-1.10498046875,0.18701171875
1077,46.5087890625,-59.2041015625,-2.38037109375,-0.2490234375,-0.9697265625,0.19287109375
1078,40.1611328125,-39.4287109375,-2.685546875,-0.1552734375,-1.07373046875,0.3037109375
1079,43.51806640625,-30.09033203125,-4.0283203125,-0.203125,-1.11962890625,0.173828125
1080,50.23193359375,-19.47021484375,-3.96728515625,-0.158203125,-1.1015625,0.16943359375
1081,39.00146484375,-19.6533203125,-3.90625,-0.19677734375,-0.91455078125,0.40771484375
1082,23.74267578125,-12.20703125,-2.9296875,-0.18603515625,-0.94384765625,0.4345703125
1083,12.6953125,-9.3994140625,-5.18798828125,-0.2119140625,-1.0283203125,0.26806640625
1084,7.080078125,-3.0517578125,-6.34765625,-0.216796875,-1.0234375,0.26220703125
1085,1.40380859375,-2.0751953125,-7.2021484375,-0.22607421875,-0.98095703125,0.3251953125
1086,-8.72802734375,-1.708984375,-6.77490234375,-0.20751953125,-0.990234375,0.3369140625
1087,-11.23046875,-1.8310546875,-7.99560546875,-0.22412109375,-1.06884765625,0.1884765625
1088,-2.5634765625,-0.732421875,-9.46044921875,-0.205078125,-1.14208984375,0.068359375
1089,10.07080078125,-0.79345703125,-10.009765625,-0.21044921875,-1.12646484375,0.1044921875
1090,18.9208984375,-3.72314453125,-10.3759765625,-0.20068359375,-1.08740234375,0.185546875
1091,20.3857421875,-5.92041015625,-10.31494140625,-0.2041015625,-1.03076171875,0.26513671875
1092,16.4794921875,-5.92041015625,-10.6201171875,-0.18408203125,-0.98095703125,0.2998046875
1093,9.70458984375,-7.99560546875,-10.498046875,-0.1953125,-1.0224609375,0.2880859375
1094,4.2724609375,-9.09423828125,-10.3759765625,-0.201171875,-0.99267578125,0.29736328125
1095,3.84521484375,-6.8359375,-11.1083984375,-0.20849609375,-1.06005859375,0.208984375
1096,2.74658203125,-4.5166015625,-13.3056640625,-0.20751953125,-1.046875,0.25732421875
1097,-3.5400390625,-5.06591796875,-19.47021484375,-0.17236328125,-0.94921875,0.32666015625
1098,-5.79833984375,-2.25830078125,-20.3857421875,-0.201171875,-1.048828125,0.27587890625
1099,-7.32421875,-2.13623046875,-25.08544921875,-0.27392578125,-1.0869140625,0.3369140625
1100,-7.080078125,0.48828125,-31.73828125,-0.2294921875,-1.1181640625,0.326171875
1101,-7.8125,0.79345703125,-34.36279296875,-0.203125,-1.04638671875,0.27392578125
1102,-9.94873046875,2.3193359375,-36.31591796875,-0.193359375,-1.06787109375,0.25390625
1103,-9.033203125,3.96728515625,-39.0625,-0.20849609375,-1.0888671875,0.28173828125
1104,-5.7373046875,3.72314453125,-40.34423828125,-0.21142578125,-1.1279296875,0.26025390625
1105,-7.14111328125,3.41796875,-42.6025390625,-0.173828125,-1.076171875,0.25048828125
1106,-4.8828125,3.60107421875,-44.86083984375,-0.17529296875,-1.08251953125,0.26416015625
1107,-4.5166015625,3.41796875,-46.08154296875,-0.1513671875,-1.06005859375,0.25146484375
1108,-4.21142578125,4.638671875,-47.66845703125,-0.16357421875,-1.099609375,0.21435546875
1109,-3.90625,3.23486328125,-51.6357421875,-0.21826171875,-1.16259765625,0.28125
1110,-2.197265625,7.4462890625,-57.2509765625,-0.1484375,-1.15576171875,0.22607421875
1111,0.67138671875,5.67626953125,-61.5234375,-0.2021484375,-1.16943359375,0.181640625
1112,-0.54931640625,5.7373046875,-67.93212890625,-0.24365234375,-1.18115234375,0.279296875
1113,-1.28173828125,6.103515625,-75.74462890625,-0.24267578125,-1.234375,0.26708984375
1114,2.9296875,2.86865234375,-82.763671875,-0.28125,-1.2646484375,0.25146484375
1115,3.5400390625,-6.65283203125,-87.40234375,-0.31396484375,-1.3642578125,0.3076171875
1116,-0.732421875,-13.671875,-97.16796875,-0.2919921875,-1.18359375,0.45654296875
1117,-6.40869140625,-18.12744140625,-107.421875,-0.27001953125,-1.28466796875,0.26025390625
1118,-10.1318359375,-19.53125,-119.7509765625,-0.2392578125,-1.380859375,0.27490234375
1119,-11.16943359375,-21.05712890625,-138.5498046875,-0.3798828125,-1.54150390625,0.25537109375
1120,-5.92041015625,-20.56884765625,-164.48974609375,-0.4658203125,-1.7099609375,0.2080078125
1121,5.37109375,-20.5078125,-192.68798828125,-0.546875,-1.88525390625,0.13916015625
1122,28.80859375,-25.45166015625,-224.18212890625,-0.4521484375,-1.974609375,-0.03271484375
1123,43.8232421875,-15.625,-258.36181640625,-0.4853515625,-1.90478515625,-0.3466796875
1124,38.818359375,-13.7939453125,-293.88427734375,-0.3662109375,-1.74560546875,0.02685546875
1125,28.50341796875,-3.90625,-332.58056640625,-0.64013671875,-2.1044921875,0.00537109375
1126,22.03369140625,3.84521484375,-371.09375,-0.38623046875,-2.43505859375,0.24072265625
1127,36.376953125,10.55908203125,-407.470703125,-0.5771484375,-2.296875,-0.1494140625
1128,-2.13623046875,24.2919921875,-441.2841796875,0.0,-2.37744140625,0.23388671875
1129,-19.22607421875,51.1474609375,-478.1494140625,-0.62890625,-2.1484375,0.58056640625
1130,-21.05712890625,51.513671875,-486.2060546875,-0.357421875,-3.24267578125,-0.3037109375
1131,36.2548828125,34.36279296875,-465.51513671875,-0.82421875,-3.4287109375,-0.45361328125
1132,108.94775390625,48.095703125,-476.86767578125,-1.19921875,-3.72119140625,-0.7900390625
1133,157.1044921875,54.26025390625,-481.99462890625,-1.6201171875,-2.3427734375,-0.4248046875
1134,157.16552734375,79.65087890625,-474.4873046875,-2.18994140625,-1.5771484375,-0.91357421875
1135,132.62939453125,94.90966796875,-420.2880859375,0.13427734375,0.23095703125,-0.94384765625
1136,43.51806640625,118.83544921875,-121.826171875,0.6298828125,2.212890625,0.26123046875
1137,-56.94580078125,127.0751953125,76.171875,-0.80078125,-0.322265625,-0.02197265625
1138,-90.6982421875,114.013671875,187.92724609375,-1.1162109375,-1.01416015625,-0.333984375
1139,-86.24267578125,95.947265625,234.2529296875,-1.36181640625,-1.0673828125,-0.37158203125
1140,-51.81884765625,68.78662109375,240.29541015625,-1.595703125,-1.1982421875,-0.58984375
1141,-17.76123046875,44.61669921875,235.2294921875,-1.19482421875,-0.759765625,-0.22216796875
1142,-10.8642578125,28.9306640625,236.26708984375,-0.92724609375,-0.48828125,-0.12255859375
1143,-19.53125,19.59228515625,242.73681640625,-0.7861328125,-0.31494140625,0.01953125
1144,-42.8466796875,17.4560546875,257.01904296875,-0.63818359375,-0.24462890625,0.0791015625
1145,-68.4814453125,20.08056640625,275.2685546875,-0.5615234375,-0.2822265625,0.07568359375
1146,-89.05029296875,24.35302734375,292.54150390625,-0.560546875,-0.42431640625,0.08984375
1147,-100.341796875,28.3203125,304.26025390625,-0.58349609375,-0.6435546875,0.0849609375
1148,-102.96630859375,33.3251953125,309.326171875,-0.56396484375,-0.80712890625,0.07958984375
1149,-101.25732421875,38.0859375,312.68310546875,-0.533203125,-0.8798828125,0.115234375
1150,-98.6328125,43.45703125,314.88037109375,-0.490234375,-0.95556640625,0.11865234375
1151,-99.54833984375,50.47607421875,315.24658203125,-0.4501953125,-1.01904296875,0.18017578125
1152,-105.46875,58.04443359375,315.85693359375,-0.40771484375,-1.1064453125,0.185546875
1153,-111.63330078125,65.5517578125,318.05419921875,-0.3740234375,-1.212890625,0.19384765625
1154,-118.2861328125,72.08251953125,323.30322265625,-0.35888671875,-1.333984375,0.2001953125
1155,-124.81689453125,76.66015625,331.4208984375,-0.38232421875,-1.48779296875,0.19140625
1156,-131.28662109375,79.04052734375,338.43994140625,-0.40185546875,-1.603515625,0.22509765625
1157,-139.95361328125,78.18603515625,343.8720703125,-0.43994140625,-1.74951171875,0.2333984375
1158,-151.3671875,74.21875,347.47314453125,-0.501953125,-1.93017578125,0.26025390625
1159,-165.771484375,66.22314453125,348.9990234375,-0.52783203125,-2.16015625,0.30029296875
1160,-179.26025390625,52.001953125,353.21044921875,-0.50244140625,-2.48388671875,0.33447265625
1161,-182.9833984375,35.82763671875,361.81640625,-0.25439453125,-2.69287109375,0.3681640625
1162,-206.4208984375,28.01513671875,363.70849609375,0.044921875,-2.58154296875,0.74072265625
1163,-223.69384765625,19.04296875,363.525390625,0.46826171875,-2.9921875,0.68896484375
1164,-214.599609375,4.7607421875,362.6708984375,0.94140625,-3.45703125,0.58935546875
1165,-181.21337890625,-11.53564453125,355.224609375,1.4560546875,-3.5888671875,0.607421875
1166,-138.24462890625,-26.3671875,332.82470703125,1.96875,-3.4599609375,0.6728515625
1167,-100.89111328125,-33.14208984375,288.0859375,2.5,-2.98095703125,0.7685546875
1168,-87.70751953125,-14.83154296875,212.34130859375,2.98486328125,-1.8896484375,1.00537109375
1169,-152.2216796875,27.89306640625,123.53515625,3.99755859375,-0.47216796875,1.8779296875
1170,-243.22509765625,69.580078125,36.68212890625,3.8759765625,-1.21923828125,1.771484375
1171,-239.501953125,77.1484375,-41.8701171875,3.32177734375,-2.12451171875,1.72900390625
1172,-157.470703125,56.640625,-98.08349609375,2.67431640625,-2.86865234375,1.45654296875
1173,299.86572265625,83.55712890625,-329.89501953125,-6.28662109375,-15.9453125,-4.095703125
1174,181.45751953125,-13.5498046875,-249.69482421875,1.31005859375,2.33203125,0.22802734375
1175,466.36962890625,-73.974609375,-188.1103515625,0.55322265625,-2.935546875,-1.1474609375
1176,429.13818359375,-173.2177734375,-155.1513671875,-1.4453125,-2.31591796875,-1.478515625
1177,248.84033203125,-116.455078125,-210.75439453125,-1.07275390625,-0.03759765625,3.0419921875
1178,109.130859375,-149.59716796875,-242.5537109375,-0.47314453125,1.1162109375,2.2529296875
1179,37.353515625,-186.21826171875,-241.3330078125,-0.00048828125,-1.2841796875,0.931640625
1180,34.11865234375,-132.8125,-213.7451171875,0.69140625,-1.41650390625,1.1083984375
1181,23.3154296875,-41.80908203125,-179.19921875,0.85888671875,-1.36376953125,1.1533203125
1182,30.09033203125,32.1044921875,-149.10888671875,0.32958984375,-1.25927734375,0.5986328125
1183,6.40869140625,42.54150390625,-121.27685546875,-0.00537109375,-1.3798828125,0.15087890625
1184,5.06591796875,-4.82177734375,-73.486328125,-0.07080078125,-1.37060546875,-0.2763671875
1185,21.1181640625,-73.1201171875,-19.95849609375,-0.11181640625,-1.25537109375,-0.2421875
1186,52.42919921875,-52.1240234375,-11.04736328125,0.18212890625,-0.88623046875,0.38720703125
1187,57.12890625,-36.31591796875,-7.14111328125,-0.185546875,-0.84814453125,0.41650390625
1188,48.03466796875,-41.68701171875,-4.45556640625,-0.06201171875,-0.97998046875,0.419921875
1189,37.9638671875,-42.29736328125,-3.35693359375,-0.11328125,-1.07373046875,0.33935546875
1190,39.24560546875,-30.1513671875,-2.197265625,-0.15576171875,-1.0380859375,0.26220703125
1191,42.48046875,-19.47021484375,-1.40380859375,-0.12060546875,-1.07568359375,0.27294921875
1192,43.15185546875,-17.2119140625,-1.220703125,-0.19287109375,-1.0400390625,0.25390625
1193,32.1044921875,-13.61083984375,-0.9765625,-0.1953125,-0.93798828125,0.41796875
1194,17.08984375,-8.85009765625,-0.67138671875,-0.203125,-0.96142578125,0.40478515625
1195,10.986328125,-6.04248046875,-2.25830078125,-0.20947265625,-1.044921875,0.27880859375
1196,6.591796875,-3.173828125,-3.60107421875,-0.22509765625,-1.0166015625,0.3095703125
1197,3.5400390625,-2.197265625,-4.0283203125,-0.22412109375,-1.0244140625,0.2822265625
1198,1.220703125,-2.9296875,-3.84521484375,-0.2177734375,-0.99658203125,0.31201171875
1199,-1.89208984375,-3.7841796875,-4.08935546875,-0.216796875,-1.0068359375,0.30712890625
1200,-3.173828125,-2.3193359375,-4.57763671875,-0.2119140625,-1.04296875,0.263671875
1201,0.42724609375,0.244140625,-6.16455078125,-0.2138671875,-1.09033203125,0.1787109375
1202,6.34765625,2.62451171875,-7.9345703125,-0.21728515625,-1.08349609375,0.18408203125
1203,9.521484375,4.82177734375,-9.033203125,-0.1806640625,-1.03369140625,0.25244140625
1204,8.23974609375,3.662109375,-9.033203125,-0.234375,-1.02294921875,0.2939453125
1205,5.79833984375,0.1220703125,-9.09423828125,-0.22705078125,-1.02392578125,0.296875
1206,2.99072265625,-3.0517578125,-9.70458984375,-0.23046875,-1.01904296875,0.29296875
1207,0.79345703125,-5.55419921875,-8.7890625,-0.2041015625,-1.00634765625,0.29931640625
1208,-1.0986328125,-5.18798828125,-8.85009765625,-0.18701171875,-1.025390625,0.27880859375
1209,0.1220703125,-3.11279296875,-9.82666015625,-0.1884765625,-1.08154296875,0.228515625
1210,4.45556640625,0.732421875,-11.3525390625,-0.19873046875,-1.0771484375,0.228515625
1211,7.87353515625,4.57763671875,-13.24462890625,-0.17626953125,-1.03515625,0.236328125
1212,8.9111328125,7.99560546875,-14.404296875,-0.16064453125,-1.0400390625,0.228515625
1213,7.2021484375,10.8642578125,-17.39501953125,-0.16064453125,-1.05029296875,0.267578125
1214,8.11767578125,13.24462890625,-20.3857421875,-0.216796875,-1.12841796875,0.2412109375
1215,14.46533203125,16.11328125,-22.76611328125,-0.185546875,-1.064453125,0.23876953125
1216,12.939453125,14.6484375,-25.2685546875,-0.19091796875,-1.05615234375,0.259765625
1217,13.12255859375,12.6953125,-24.71923828125,-0.22900390625,-1.033203125,0.3466796875
1218,9.46044921875,7.50732421875,-25.5126953125,-0.23486328125,-1.01171875,0.419921875
1219,3.2958984375,1.77001953125,-25.81787109375,-0.2470703125,-0.99267578125,0.4833984375
1220,-2.25830078125,-3.11279296875,-26.30615234375,-0.216796875,-0.974609375,0.45947265625
1221,-7.6904296875,-6.591796875,-27.64892578125,-0.2216796875,-1.04150390625,0.376953125
1222,-10.19287109375,-6.65283203125,-30.70068359375,-0.20361328125,-1.07080078125,0.33056640625
1223,-11.65771484375,-5.7373046875,-34.24072265625,-0.2109375,-1.08447265625,0.3193359375
1224,-12.5732421875,-4.0283203125,-38.9404296875,-0.24755859375,-1.099609375,0.3212890625
1225,-15.7470703125,-3.5400390625,-45.41015625,-0.26171875,-1.12841796875,0.33642578125
1226,-19.4091796875,-2.8076171875,-53.955078125,-0.2802734375,-1.16015625,0.3544921875
1227,-22.705078125,-2.197265625,-62.68310546875,-0.271484375,-1.16455078125,0.37841796875
1228,-26.79443359375,-2.197265625,-72.08251953125,-0.29150390625,-1.17529296875,0.388671875
1229,-31.3720703125,-3.0517578125,-82.763671875,-0.2880859375,-1.2275390625,0.35302734375
1230,-27.587890625,-0.18310546875,-95.64208984375,-0.34423828125,-1.3662109375,0.24365234375
1231,-19.22607421875,-0.06103515625,-108.154296875,-0.42333984375,-1.51513671875,0.2333984375
1232,-16.17431640625,-0.91552734375,-123.59619140625,-0.298828125,-1.40771484375,0.19580078125
1233,-12.26806640625,3.0517578125,-141.7236328125,-0.3681640625,-1.52880859375,0.1513671875
1234,-0.244140625,6.40869140625,-161.865234375,-0.2841796875,-1.65576171875,0.00439453125
1235,8.48388671875,7.8125,-189.208984375,-0.6083984375,-1.81884765625,0.16259765625
1236,29.84619140625,-1.89208984375,-221.435546875,-0.84033203125,-2.2333984375,0.00537109375
1237,43.45703125,-24.10888671875,-256.65283203125,-0.83056640625,-1.92431640625,0.2109375
1238,25.08544921875,-31.06689453125,-296.81396484375,-0.484375,-1.5595703125,0.35009765625
1239,2.50244140625,-25.634765625,-330.87158203125,-0.5087890625,-1.96875,0.2685546875
1240,-7.87353515625,-7.62939453125,-370.05615234375,-0.697265625,-1.8525390625,0.4423828125
1241,-95.3369140625,19.287109375,-423.9501953125,-0.23388671875,-1.42041015625,0.99658203125
1242,-108.88671875,16.2353515625,-436.70654296875,-0.3857421875,-3.23681640625,0.41796875
1243,-19.22607421875,-27.34375,-423.88916015625,-0.87255859375,-4.05224609375,-0.29296875
1244,99.365234375,-49.49951171875,-401.30615234375,-0.80419921875,-3.611328125,-0.4541015625
1245,180.7861328125,-71.10595703125,-391.4794921875,-0.87548828125,-3.22119140625,-0.17041015625
1246,252.13623046875,-72.20458984375,-389.0380859375,-1.6572265625,-2.60302734375,-0.79443359375
1247,288.39111328125,-78.06396484375,-367.67578125,-1.72802734375,-1.4833984375,-1.0654296875
1248,345.5810546875,-85.75439453125,-280.70068359375,-1.12548828125,1.01416015625,-1.66357421875
1249,206.9091796875,-43.64013671875,-36.80419921875,0.671875,2.46875,0.5947265625
1250,55.419921875,7.9345703125,81.11572265625,-0.37841796875,-0.3056640625,0.0185546875
1251,-9.521484375,36.9873046875,124.45068359375,-0.69384765625,-0.61865234375,-0.2763671875
1252,-19.10400390625,50.29296875,139.95361328125,-0.96826171875,-0.58251953125,-0.44970703125
1253,22.8271484375,40.771484375,150.57373046875,-0.97802734375,-0.70849609375,-0.60009765625
1254,69.82421875,23.0712890625,166.32080078125,-0.88818359375,-0.6884765625,-0.37646484375
1255,105.65185546875,2.685546875,182.92236328125,-0.857421875,-0.6171875,-0.30078125
1256,125.1220703125,-19.287109375,204.345703125,-0.75439453125,-0.40673828125,-0.23828125
1257,127.197265625,-38.63525390625,233.70361328125,-0.64599609375,-0.2919921875,-0.21240234375
1258,119.32373046875,-53.7109375,264.5263671875,-0.5478515625,-0.2900390625,-0.23388671875
1259,108.154296875,-64.94140625,293.51806640625,-0.46923828125,-0.3076171875,-0.28271484375
1260,88.80615234375,-77.392578125,313.65966796875,-0.5400390625,-0.26708984375,-0.27001953125
1261,59.2041015625,-90.576171875,323.8525390625,-0.5478515625,-0.33056640625,-0.27490234375
1262,29.60205078125,-103.6376953125,329.9560546875,-0.48876953125,-0.50390625,-0.33251953125
1263,4.0283203125,-118.0419921875,336.12060546875,-0.455078125,-0.712890625,-0.3564453125
1264,-15.9912109375,-132.2021484375,343.3837890625,-0.40966796875,-0.92822265625,-0.33935546875
1265,-26.91650390625,-149.2919921875,352.96630859375,-0.3505859375,-1.24072265625,-0.4111328125
1266,-23.37646484375,-170.59326171875,364.92919921875,-0.29541015625,-1.5888671875,-0.49658203125
1267,-8.11767578125,-201.72119140625,380.31005859375,-0.2470703125,-1.845703125,-0.533203125
1268,13.18359375,-240.8447265625,396.240234375,-0.2373046875,-2.1171875,-0.61181640625
1269,37.53662109375,-287.90283203125,410.94970703125,-0.19677734375,-2.2900390625,-0.6962890625
1270,51.45263671875,-335.63232421875,420.71533203125,-0.08740234375,-2.38818359375,-0.787109375
1271,51.025390625,-380.4931640625,427.18505859375,0.13720703125,-2.4990234375,-0.8818359375
1272,33.87451171875,-420.22705078125,429.38232421875,0.32177734375,-2.5966796875,-0.8857421875
1273,8.85009765625,-454.52880859375,426.6357421875,0.4921875,-2.705078125,-0.90966796875
1274,-11.71875,-484.2529296875,418.5791015625,0.65478515625,-2.81982421875,-0.99853515625
1275,-22.0947265625,-513.427734375,400.0244140625,0.71044921875,-2.80029296875,-1.140625
1276,-38.26904296875,-532.77587890625,367.0654296875,0.89306640625,-2.5927734375,-1.17822265625
1277,-53.16162109375,-545.5322265625,320.068359375,1.11376953125,-2.66259765625,-1.4609375
1278,-59.87548828125,-545.59326171875,268.49365234375,1.27490234375,-2.541015625,-1.625
1279,-65.673828125,-533.38623046875,216.24755859375,1.3623046875,-2.259765625,-1.71923828125
1280,-73.91357421875,-506.9580078125,164.0625,1.39111328125,-2.02978515625,-1.72509765625
1281,-223.0224609375,-427.30712890625,90.2099609375,1.8564453125,-1.251953125,-0.5537109375
1282,-230.8349609375,-396.17919921875,56.640625,2.166015625,-1.2890625,-2.1455078125
1283,-264.09912109375,-309.87548828125,37.353515625,2.169921875,-0.96435546875,-1.30615234375
1284,-273.193359375,-243.46923828125,1.708984375,2.248046875,-1.66064453125,-0.8486328125
1285,-264.404296875,-174.13330078125,-19.775390625,2.453125,-2.5068359375,-0.40380859375
1286,-205.99365234375,-101.9287109375,-19.775390625,1.0263671875,-1.49853515625,-0.61767578125
1287,-213.68408203125,-69.82421875,12.20703125,0.79638671875,-1.3779296875,-1.05224609375
1288,-100.830078125,-128.90625,61.4013671875,-0.28515625,-1.8359375,-0.4677734375
1289,-18.73779296875,-141.7236328125,45.8984375,-0.8349609375,-2.14306640625,-0.97509765625
1290,12.8173828125,-148.01025390625,44.189453125,0.11181640625,-0.7958984375,-0.1708984375
1291,-48.15673828125,-89.7216796875,44.61669921875,0.44970703125,-0.68359375,-0.41357421875
1292,-59.38720703125,-36.4990234375,47.30224609375,0.2158203125,-1.28759765625,-0.98046875
1293,-8.4228515625,-7.62939453125,55.17578125,0.10595703125,-1.5546875,-0.9375
1294,79.833984375,16.2353515625,52.55126953125,0.0478515625,-1.2890625,-0.3447265625
1295,124.57275390625,43.15185546875,48.27880859375,-0.12890625,-1.33447265625,-0.27587890625
1296,164.36767578125,45.10498046875,30.2734375,-1.25048828125,-1.0302734375,0.87158203125
1297,45.166015625,22.5830078125,28.564453125,0.0576171875,-1.00537109375,0.345703125
1298,31.3720703125,3.11279296875,26.42822265625,-0.3359375,-0.3994140625,1.51708984375
1299,0.67138671875,0.06103515625,21.05712890625,-0.466796875,-1.1943359375,0.0576171875
1300,-7.080078125,-4.82177734375,14.404296875,-0.3828125,-1.064453125,0.1591796875
1301,-15.07568359375,-4.33349609375,10.68115234375,-0.23193359375,-0.9619140625,0.38818359375
1302,-26.06201171875,1.953125,8.7890625,-0.21630859375,-0.95263671875,0.40576171875
1303,-38.51318359375,1.40380859375,8.85009765625,-0.23828125,-0.939453125,0.38818359375
1304,-46.0205078125,-1.52587890625,8.056640625,-0.27783203125,-1.00048828125,0.25439453125
1305,-41.68701171875,-7.32421875,7.4462890625,-0.259765625,-1.15087890625,0.0390625
1306,-30.6396484375,-7.87353515625,7.50732421875,-0.2255859375,-1.130859375,0.04248046875
1307,-24.90234375,-7.6904296875,7.38525390625,-0.22998046875,-1.06982421875,0.13818359375
1308,-18.73779296875,-8.36181640625,7.26318359375,-0.2509765625,-1.08447265625,0.10791015625
1309,-15.0146484375,-12.3291015625,8.1787109375,-0.2353515625,-1.07568359375,0.13720703125
1310,-11.65771484375,-16.29638671875,9.033203125,-0.25146484375,-1.0830078125,0.15185546875
1311,-9.27734375,-15.68603515625,7.50732421875,-0.24658203125,-1.056640625,0.18505859375
1312,-9.033203125,-13.61083984375,5.4931640625,-0.2509765625,-1.05908203125,0.18701171875
1313,-8.544921875,-16.66259765625,5.06591796875,-0.2587890625,-1.00927734375,0.21728515625
1314,-13.427734375,-21.91162109375,5.31005859375,-0.26904296875,-0.98681640625,0.2626953125
1315,-14.892578125,-25.45166015625,5.126953125,-0.25146484375,-1.0576171875,0.162109375
1316,-16.41845703125,-22.8271484375,4.7607421875,-0.22509765625,-1.0400390625,0.2021484375
1317,-16.29638671875,-21.17919921875,5.2490234375,-0.244140625,-1.05712890625,0.18017578125
1318,-14.95361328125,-19.1650390625,4.0283203125,-0.24462890625,-1.05859375,0.1689453125
1319,-12.0849609375,-15.869140625,2.0751953125,-0.24658203125,-1.080078125,0.14306640625
1320,-7.14111328125,-10.43701171875,-1.28173828125,-0.2607421875,-1.0966796875,0.11083984375
1321,0.244140625,-4.150390625,-4.2724609375,-0.23974609375,-1.09130859375,0.1298828125
1322,4.33349609375,-3.0517578125,-4.638671875,-0.2265625,-1.0498046875,0.14892578125
1323,3.47900390625,-3.11279296875,-2.86865234375,-0.193359375,-1.0126953125,0.21728515625
1324,0.79345703125,0.1220703125,-2.86865234375,-0.2236328125,-1.02880859375,0.22802734375
1325,0.8544921875,2.13623046875,-4.39453125,-0.244140625,-1.0546875,0.18408203125
1326,1.3427734375,2.197265625,-6.34765625,-0.2626953125,-1.06103515625,0.16650390625
1327,4.150390625,4.08935546875,-8.30078125,-0.23828125,-1.06982421875,0.16748046875
1328,5.2490234375,4.7607421875,-8.7890625,-0.23291015625,-1.04052734375,0.19287109375
1329,5.43212890625,5.615234375,-8.6669921875,-0.193359375,-1.04150390625,0.21435546875
1330,3.84521484375,7.38525390625,-8.11767578125,-0.228515625,-1.02099609375,0.23291015625
1331,2.9296875,4.7607421875,-8.11767578125,-0.24462890625,-1.0673828125,0.16015625
1332,4.57763671875,2.86865234375,-8.30078125,-0.23779296875,-1.04541015625,0.19775390625
1333,2.9296875,-0.1220703125,-8.36181640625,-0.24267578125,-1.041015625,0.197265625
1334,1.8310546875,-2.01416015625,-8.97216796875,-0.22509765625,-1.03369140625,0.21337890625
1335,1.3427734375,-3.72314453125,-8.7890625,-0.22509765625,-1.02978515625,0.228515625
1336,0.79345703125,-3.23486328125,-9.765625,-0.22900390625,-1.05859375,0.1943359375
1337,4.39453125,-4.2724609375,-10.25390625,-0.24365234375,-1.09716796875,0.11279296875
1338,8.056640625,-7.4462890625,-10.68115234375,-0.23486328125,-1.07861328125,0.1640625
1339,9.765625,-10.1318359375,-10.19287109375,-0.22607421875,-1.0654296875,0.158203125
1340,10.986328125,-13.916015625,-9.94873046875,-0.2255859375,-1.0458984375,0.20703125
1341,9.3994140625,-14.95361328125,-10.07080078125,-0.197265625,-1.02392578125,0.24072265625
1342,5.859375,-15.93017578125,-9.21630859375,-0.2001953125,-1.01318359375,0.265625
1343,0.3662109375,-17.39501953125,-9.46044921875,-0.236328125,-1.0166015625,0.2724609375
1344,-2.50244140625,-19.83642578125,-9.1552734375,-0.19677734375,-1.0458984375,0.23779296875
1345,-6.89697265625,-18.61572265625,-8.7890625,-0.18310546875,-0.98095703125,0.3486328125
1346,-13.427734375,-23.4375,-8.23974609375,-0.2001953125,-1.0224609375,0.27587890625
1347,-11.90185546875,-26.30615234375,-7.6904296875,-0.1689453125,-1.064453125,0.19677734375
1348,-6.28662109375,-25.390625,-6.103515625,-0.16455078125,-1.06298828125,0.1123046875
1349,-0.91552734375,-18.310546875,-5.4931640625,-0.138671875,-1.0546875,0.16357421875
1350,1.64794921875,-13.5498046875,-5.67626953125,-0.1845703125,-1.06103515625,0.1875
1351,5.126953125,-14.404296875,-5.2490234375,-0.17626953125,-1.08447265625,0.14404296875
1352,7.38525390625,-15.2587890625,-5.2490234375,-0.19287109375,-1.07373046875,0.20458984375
1353,7.568359375,-18.00537109375,-5.31005859375,-0.18798828125,-1.06494140625,0.2080078125
1354,9.94873046875,-20.56884765625,-5.615234375,-0.1953125,-1.064453125,0.18017578125
1355,8.85009765625,-18.49365234375,-6.2255859375,-0.1572265625,-1.01953125,0.27734375
1356,7.14111328125,-15.44189453125,-6.65283203125,-0.1552734375,-1.02099609375,0.31298828125
1357,3.90625,-15.93017578125,-8.7890625,-0.20751953125,-1.02783203125,0.2822265625
1358,-1.3427734375,-15.7470703125,-11.90185546875,-0.23583984375,-1.04443359375,0.31201171875
1359,-7.32421875,-12.0849609375,-18.5546875,-0.2841796875,-1.044921875,0.32470703125
1360,-14.46533203125,-12.26806640625,-24.90234375,-0.306640625,-1.1142578125,0.31689453125
1361,-19.83642578125,-12.6953125,-32.28759765625,-0.27294921875,-1.1455078125,0.34130859375
1362,-17.4560546875,-10.31494140625,-43.3349609375,-0.3193359375,-1.255859375,0.25927734375
1363,-17.02880859375,-4.33349609375,-51.69677734375,-0.29248046875,-1.21142578125,0.20849609375
1364,-16.11328125,0.3662109375,-59.38720703125,-0.21484375,-1.37646484375,0.2119140625
1365,-10.25390625,6.53076171875,-67.7490234375,-0.2529296875,-1.22509765625,0.1552734375
1366,-3.72314453125,10.7421875,-76.47705078125,-0.341796875,-1.25634765625,0.20947265625
1367,1.5869140625,12.51220703125,-84.77783203125,-0.2919921875,-1.2578125,0.22265625
1368,10.1318359375,14.95361328125,-94.3603515625,-0.30517578125,-1.35693359375,0.1982421875
1369,15.380859375,15.380859375,-99.7314453125,-0.30322265625,-1.38427734375,0.06005859375
1370,36.865234375,11.71875,-109.4970703125,-0.33251953125,-1.51318359375,0.00390625
1371,50.78125,11.41357421875,-118.83544921875,-0.2900390625,-1.5009765625,0.02685546875
