n_samples,gyr_x,gyr_y,gyr_z,acc_x,acc_y,acc_z
0,0.18310546875,0.06103515625,0.8544921875,-0.24755859375,-1.01708984375,0.30029296875
1,-0.1220703125,-0.6103515625,0.54931640625,-0.2509765625,-1.0205078125,0.29345703125
2,0.67138671875,-0.30517578125,0.3662109375,-0.25537109375,-1.0185546875,0.30322265625
3,-0.244140625,-0.54931640625,0.18310546875,-0.2392578125,-1.0068359375,0.31103515625
4,-0.18310546875,-0.244140625,0.732421875,-0.2451171875,-1.01904296875,0.298828125
5,0.244140625,-0.30517578125,0.54931640625,-0.2451171875,-1.01513671875,0.30029296875
6,0.30517578125,0.30517578125,0.48828125,-0.24365234375,-1.0166015625,0.306640625
7,0.3662109375,1.220703125,0.18310546875,-0.23974609375,-1.0166015625,0.30517578125
8,0.06103515625,2.685546875,0.18310546875,-0.24853515625,-1.0087890625,0.31005859375
9,-0.732421875,3.90625,-0.732421875,-0.24658203125,-1.01025390625,0.2958984375
10,-2.01416015625,4.08935546875,-0.244140625,-0.23388671875,-1.01318359375,0.31591796875
11,-1.708984375,4.150390625,-0.54931640625,-0.25,-1.0283203125,0.283203125
12,-0.3662109375,4.0283203125,-0.244140625,-0.24755859375,-1.02392578125,0.29541015625
13,0.30517578125,3.84521484375,0.0,-0.240234375,-1.01220703125,0.29931640625
14,0.91552734375,3.72314453125,0.3662109375,-0.23779296875,-1.01416015625,0.30908203125
15,1.0986328125,2.99072265625,0.732421875,-0.25048828125,-1.0126953125,0.3037109375
16,1.0986328125,2.3193359375,0.79345703125,-0.2490234375,-1.01611328125,0.3076171875
17,0.30517578125,2.25830078125,0.732421875,-0.24267578125,-1.0107421875,0.31298828125
18,-0.244140625,1.52587890625,0.79345703125,-0.2529296875,-1.00634765625,0.2978515625
19,-1.3427734375,0.91552734375,0.67138671875,-0.24951171875,-1.005859375,0.3076171875
20,-1.46484375,0.54931640625,0.3662109375,-0.2490234375,-1.017578125,0.2958984375
21,-1.52587890625,-0.244140625,-0.06103515625,-0.251953125,-1.0126953125,0.2978515625
22,-1.8310546875,-0.18310546875,0.1220703125,-0.2470703125,-1.0146484375,0.294921875
23,-1.5869140625,-1.220703125,0.244140625,-0.24169921875,-1.0185546875,0.310546875
24,-1.40380859375,-0.91552734375,-0.3662109375,-0.244140625,-1.01904296875,0.28955078125
25,-1.8310546875,-1.15966796875,0.06103515625,-0.2470703125,-1.01025390625,0.30419921875
26,-1.77001953125,-0.67138671875,0.18310546875,-0.24755859375,-1.02099609375,0.29736328125
27,-1.708984375,-0.732421875,-0.1220703125,-0.2470703125,-1.0146484375,0.29248046875
28,-1.46484375,-0.6103515625,-0.244140625,-0.248046875,-1.01806640625,0.296875
29,-1.220703125,0.06103515625,-0.30517578125,-0.24365234375,-1.013671875,0.29638671875
30,-0.3662109375,0.244140625,-0.54931640625,-0.2421875,-1.01513671875,0.30224609375
31,-0.06103515625,1.0986328125,-0.42724609375,-0.251953125,-1.01611328125,0.29931640625
32,-0.244140625,1.5869140625,-0.42724609375,-0.2490234375,-1.01611328125,0.302734375
33,-0.79345703125,2.0751953125,-0.6103515625,-0.24658203125,-1.00927734375,0.30224609375
34,-1.28173828125,1.953125,-0.54931640625,-0.244140625,-1.02001953125,0.29248046875
35,-0.67138671875,2.197265625,-0.91552734375,-0.23876953125,-1.0146484375,0.2939453125
36,-1.5869140625,1.8310546875,-0.67138671875,-0.24267578125,-1.00927734375,0.30419921875
37,-1.220703125,1.89208984375,-0.6103515625,-0.24462890625,-1.013671875,0.30029296875
38,-1.15966796875,1.3427734375,-0.18310546875,-0.23876953125,-1.013671875,0.30615234375
39,-0.3662109375,0.30517578125,0.06103515625,-0.23876953125,-1.01123046875,0.30078125
40,-0.1220703125,0.42724609375,-0.1220703125,-0.2451171875,-1.01806640625,0.296875
41,0.3662109375,-0.18310546875,0.244140625,-0.25244140625,-1.02392578125,0.2919921875
42,0.54931640625,-0.244140625,0.1220703125,-0.2392578125,-1.021484375,0.291015625
43,0.42724609375,-0.42724609375,0.42724609375,-0.2333984375,-1.01611328125,0.3017578125
44,0.48828125,-0.67138671875,0.48828125,-0.24267578125,-1.01953125,0.29345703125
45,0.6103515625,-0.9765625,0.3662109375,-0.25146484375,-1.01904296875,0.2998046875
46,0.30517578125,-1.64794921875,0.6103515625,-0.24560546875,-1.02490234375,0.30322265625
47,0.3662109375,-1.64794921875,0.244140625,-0.24560546875,-1.01708984375,0.30224609375
48,0.1220703125,-2.25830078125,0.6103515625,-0.2529296875,-1.01416015625,0.298828125
49,-0.1220703125,-1.953125,0.79345703125,-0.2431640625,-1.015625,0.294921875
50,-0.30517578125,-2.197265625,0.48828125,-0.24755859375,-1.0205078125,0.294921875
51,-0.18310546875,-2.38037109375,0.8544921875,-0.24951171875,-1.01708984375,0.2890625
52,-0.244140625,-2.13623046875,1.0986328125,-0.24951171875,-1.01416015625,0.298828125
53,0.06103515625,-2.3193359375,0.8544921875,-0.24658203125,-1.01318359375,0.30029296875
54,-0.42724609375,-2.197265625,0.732421875,-0.25,-1.017578125,0.30078125
55,0.1220703125,-2.44140625,0.6103515625,-0.2451171875,-1.01611328125,0.29638671875
56,0.18310546875,-2.86865234375,0.6103515625,-0.24951171875,-1.01611328125,0.294921875
57,0.30517578125,-3.0517578125,0.42724609375,-0.23828125,-1.0205078125,0.29541015625
58,1.220703125,-3.23486328125,0.8544921875,-0.24853515625,-1.01513671875,0.28173828125
59,1.3427734375,-2.86865234375,0.91552734375,-0.24658203125,-1.01513671875,0.29541015625
60,1.46484375,-3.11279296875,1.28173828125,-0.24365234375,-1.0205078125,0.302734375
61,2.197265625,-2.74658203125,1.46484375,-0.2421875,-1.015625,0.29931640625
62,2.197265625,-2.38037109375,1.220703125,-0.23974609375,-1.01220703125,0.30419921875
63,2.8076171875,-2.44140625,1.77001953125,-0.24560546875,-1.0166015625,0.2998046875
64,2.44140625,-2.197265625,1.8310546875,-0.2470703125,-1.017578125,0.29931640625
65,2.13623046875,-1.708984375,1.5869140625,-0.23681640625,-1.00927734375,0.3115234375
66,1.77001953125,-1.5869140625,1.8310546875,-0.24267578125,-1.00927734375,0.30126953125
67,2.25830078125,-0.732421875,1.52587890625,-0.2548828125,-1.0087890625,0.30126953125
68,0.9765625,-1.708984375,1.89208984375,-0.24609375,-1.01220703125,0.294921875
69,1.8310546875,-1.28173828125,1.52587890625,-0.2490234375,-1.01025390625,0.30419921875
70,0.30517578125,-1.953125,0.91552734375,-0.25341796875,-1.01318359375,0.314453125
71,-0.06103515625,-1.953125,1.15966796875,-0.23974609375,-1.00927734375,0.3056640625
72,-0.3662109375,-1.77001953125,0.6103515625,-0.248046875,-1.0068359375,0.310546875
73,-0.06103515625,-1.3427734375,0.732421875,-0.23583984375,-1.00927734375,0.3037109375
74,-0.30517578125,-0.79345703125,0.8544921875,-0.248046875,-1.00732421875,0.29833984375
75,-0.06103515625,-0.9765625,0.79345703125,-0.24462890625,-1.01220703125,0.298828125
76,0.30517578125,-0.30517578125,0.732421875,-0.23583984375,-1.009765625,0.3134765625
77,0.6103515625,-0.48828125,0.9765625,-0.24609375,-1.01171875,0.2939453125
78,1.3427734375,-0.3662109375,0.9765625,-0.2421875,-1.01318359375,0.314453125
79,0.9765625,-0.9765625,1.0986328125,-0.2470703125,-1.01513671875,0.31005859375
80,1.03759765625,-0.67138671875,1.220703125,-0.23779296875,-1.021484375,0.30810546875
81,1.40380859375,-0.06103515625,1.03759765625,-0.24365234375,-1.0126953125,0.30859375
82,0.244140625,-0.244140625,0.9765625,-0.244140625,-1.0107421875,0.3193359375
83,-0.1220703125,-0.48828125,0.79345703125,-0.25,-1.01171875,0.310546875
84,-1.40380859375,-0.3662109375,0.6103515625,-0.25048828125,-1.00927734375,0.31103515625
85,-1.953125,0.0,0.3662109375,-0.23681640625,-1.01318359375,0.3134765625
86,-2.86865234375,0.67138671875,0.48828125,-0.25146484375,-1.00634765625,0.31005859375
87,-2.62451171875,0.8544921875,0.1220703125,-0.24560546875,-1.01416015625,0.310546875
88,-3.5400390625,1.0986328125,0.30517578125,-0.2412109375,-1.01123046875,0.30908203125
89,-3.0517578125,2.0751953125,0.1220703125,-0.2451171875,-1.01025390625,0.31884765625
90,-2.9296875,2.38037109375,0.30517578125,-0.2451171875,-1.013671875,0.30126953125
91,-3.41796875,2.99072265625,0.3662109375,-0.25,-1.02099609375,0.30517578125
92,-4.0283203125,2.9296875,-0.1220703125,-0.25146484375,-1.01220703125,0.30517578125
93,-4.0283203125,3.47900390625,-0.91552734375,-0.2509765625,-1.015625,0.30615234375
94,-4.39453125,3.35693359375,-1.220703125,-0.24951171875,-1.0078125,0.30322265625
95,-4.33349609375,3.5400390625,-1.28173828125,-0.251953125,-1.01318359375,0.294921875
96,-3.0517578125,4.2724609375,-0.8544921875,-0.23046875,-1.0166015625,0.2919921875
97,-1.220703125,4.57763671875,-0.91552734375,-0.24267578125,-1.01806640625,0.2802734375
98,0.3662109375,4.5166015625,-0.54931640625,-0.24853515625,-1.02685546875,0.28466796875
99,0.9765625,4.39453125,-0.6103515625,-0.25048828125,-1.0224609375,0.2861328125
100,1.40380859375,5.0048828125,0.1220703125,-0.2451171875,-1.01513671875,0.2978515625
101,1.953125,4.638671875,0.18310546875,-0.24951171875,-1.01806640625,0.28173828125
102,2.74658203125,4.33349609375,0.18310546875,-0.236328125,-1.02294921875,0.2939453125
103,2.5634765625,4.82177734375,0.3662109375,-0.2470703125,-1.01806640625,0.294921875
104,2.44140625,4.638671875,0.48828125,-0.2509765625,-1.0166015625,0.29736328125
105,2.0751953125,4.69970703125,0.3662109375,-0.25,-1.0166015625,0.30126953125
106,1.0986328125,4.08935546875,0.18310546875,-0.24609375,-1.01611328125,0.3056640625
107,0.79345703125,3.60107421875,-0.1220703125,-0.24853515625,-1.01318359375,0.30029296875
108,-0.1220703125,2.62451171875,0.3662109375,-0.24853515625,-1.01611328125,0.3017578125
109,-0.42724609375,2.25830078125,0.06103515625,-0.2548828125,-1.01513671875,0.2958984375
110,-0.79345703125,1.77001953125,0.30517578125,-0.25537109375,-1.01318359375,0.29736328125
111,-0.54931640625,1.77001953125,0.42724609375,-0.24658203125,-1.01220703125,0.30615234375
112,-0.3662109375,0.48828125,0.48828125,-0.2548828125,-1.009765625,0.2978515625
113,0.0,-0.244140625,0.67138671875,-0.25341796875,-1.0146484375,0.29248046875
114,0.30517578125,-0.18310546875,0.732421875,-0.24951171875,-1.01416015625,0.30322265625
115,0.8544921875,-0.79345703125,0.67138671875,-0.2470703125,-1.0185546875,0.3046875
116,0.18310546875,-1.40380859375,0.48828125,-0.25732421875,-1.021484375,0.2978515625
117,0.67138671875,-1.52587890625,0.3662109375,-0.25048828125,-1.01416015625,0.29345703125
118,0.67138671875,-1.89208984375,0.8544921875,-0.2509765625,-1.01220703125,0.3017578125
119,0.67138671875,-1.46484375,0.732421875,-0.2509765625,-1.009765625,0.294921875
120,1.03759765625,-2.3193359375,1.28173828125,-0.25,-1.013671875,0.29833984375
121,1.40380859375,-3.0517578125,1.15966796875,-0.2490234375,-1.017578125,0.30810546875
122,1.40380859375,-3.662109375,1.28173828125,-0.24462890625,-1.01123046875,0.30078125
123,1.5869140625,-3.47900390625,1.46484375,-0.248046875,-1.01171875,0.3076171875
124,1.46484375,-3.7841796875,1.15966796875,-0.2470703125,-1.01904296875,0.30029296875
125,1.03759765625,-4.39453125,1.8310546875,-0.240234375,-1.01123046875,0.2978515625
126,1.15966796875,-4.39453125,1.8310546875,-0.23828125,-1.01416015625,0.294921875
127,1.220703125,-3.7841796875,1.46484375,-0.2529296875,-1.0009765625,0.3115234375
128,-0.1220703125,-3.84521484375,1.03759765625,-0.2490234375,-1.013671875,0.30615234375
129,-0.79345703125,-4.08935546875,0.54931640625,-0.25146484375,-1.0185546875,0.3017578125
130,-0.79345703125,-4.94384765625,0.91552734375,-0.25341796875,-1.0166015625,0.30029296875
131,-1.15966796875,-4.33349609375,0.732421875,-0.24072265625,-1.015625,0.30859375
132,-0.9765625,-4.0283203125,0.54931640625,-0.24951171875,-1.0087890625,0.3017578125
133,-0.9765625,-3.72314453125,0.8544921875,-0.24755859375,-1.013671875,0.302734375
134,-0.42724609375,-3.0517578125,0.8544921875,-0.25439453125,-1.01220703125,0.29736328125
135,-0.1220703125,-2.74658203125,0.91552734375,-0.24658203125,-1.021484375,0.298828125
136,-0.18310546875,-2.25830078125,0.54931640625,-0.25048828125,-1.01123046875,0.30908203125
137,-0.244140625,-1.46484375,0.67138671875,-0.2470703125,-1.0166015625,0.30322265625
138,0.0,-1.64794921875,0.54931640625,-0.24462890625,-1.009765625,0.3076171875
139,0.732421875,-1.77001953125,0.91552734375,-0.2392578125,-1.0107421875,0.3115234375
140,0.54931640625,-1.708984375,0.732421875,-0.25439453125,-1.00927734375,0.302734375
141,1.220703125,-0.42724609375,1.220703125,-0.23583984375,-1.01171875,0.2958984375
142,1.0986328125,0.48828125,0.91552734375,-0.23974609375,-1.013671875,0.30908203125
143,1.953125,2.197265625,0.79345703125,-0.2421875,-1.00634765625,0.314453125
144,1.64794921875,3.662109375,0.732421875,-0.2431640625,-1.005859375,0.31396484375
145,1.28173828125,4.33349609375,0.79345703125,-0.24169921875,-1.0048828125,0.31396484375
146,1.28173828125,4.69970703125,1.15966796875,-0.244140625,-1.017578125,0.30810546875
147,1.8310546875,5.2490234375,1.64794921875,-0.24462890625,-1.01318359375,0.3232421875
148,1.5869140625,5.18798828125,0.79345703125,-0.2490234375,-1.01318359375,0.3115234375
149,0.9765625,5.55419921875,1.220703125,-0.25341796875,-1.013671875,0.3095703125
150,1.28173828125,5.43212890625,1.220703125,-0.25390625,-1.0185546875,0.30712890625
151,0.6103515625,5.18798828125,1.46484375,-0.25048828125,-1.01416015625,0.30712890625
152,0.79345703125,4.7607421875,1.220703125,-0.25439453125,-1.01904296875,0.30126953125
153,0.1220703125,4.39453125,1.0986328125,-0.25732421875,-1.0078125,0.3095703125
154,-0.48828125,4.150390625,1.3427734375,-0.2470703125,-1.0185546875,0.31103515625
155,-1.15966796875,5.2490234375,2.25830078125,-0.23974609375,-1.0126953125,0.31591796875
156,-1.3427734375,5.31005859375,1.8310546875,-0.255859375,-1.01904296875,0.31201171875
157,-1.3427734375,5.06591796875,2.3193359375,-0.255859375,-1.0126953125,0.298828125
158,-0.9765625,5.0048828125,2.50244140625,-0.26123046875,-1.01171875,0.31640625
159,-0.732421875,4.0283203125,2.0751953125,-0.26708984375,-1.01806640625,0.2890625
160,-0.48828125,2.50244140625,1.708984375,-0.26025390625,-1.00830078125,0.30029296875
161,-0.91552734375,2.197265625,2.01416015625,-0.25,-1.0166015625,0.302734375
162,0.79345703125,1.52587890625,2.197265625,-0.25927734375,-1.01318359375,0.29833984375
163,0.06103515625,1.3427734375,2.3193359375,-0.25634765625,-1.01025390625,0.30712890625
164,-0.54931640625,0.732421875,2.0751953125,-0.26025390625,-1.02001953125,0.29248046875
165,-1.953125,-0.42724609375,1.708984375,-0.2705078125,-1.00634765625,0.30224609375
166,-3.90625,-0.54931640625,1.52587890625,-0.2509765625,-1.01513671875,0.31298828125
167,-4.638671875,-1.3427734375,1.708984375,-0.25341796875,-1.02490234375,0.30126953125
168,-7.080078125,-1.15966796875,0.6103515625,-0.279296875,-1.0048828125,0.3193359375
169,-10.55908203125,-1.708984375,-0.91552734375,-0.2841796875,-1.005859375,0.306640625
170,-15.19775390625,-0.79345703125,-2.5634765625,-0.27685546875,-1.009765625,0.32373046875
171,-23.0712890625,0.67138671875,-5.37109375,-0.2998046875,-0.998046875,0.33642578125
172,-30.029296875,-0.732421875,-8.6669921875,-0.34765625,-1.03564453125,0.26318359375
173,-36.80419921875,1.15966796875,-19.287109375,-0.3369140625,-1.29638671875,0.19775390625
174,-6.7138671875,8.4228515625,-34.0576171875,-0.6279296875,-1.45458984375,0.10205078125
175,65.7958984375,14.22119140625,-51.26953125,-1.09130859375,-1.87060546875,0.029296875
176,10.6201171875,-5.9814453125,-72.75390625,-0.11962890625,-1.33642578125,0.2177734375
177,15.625,0.06103515625,-85.63232421875,-0.44482421875,-1.42919921875,0.2392578125
178,17.578125,-7.01904296875,-97.412109375,-0.6298828125,-1.58447265625,-0.03515625
179,52.8564453125,-12.63427734375,-97.2900390625,-0.875,-1.3330078125,0.06591796875
180,72.1435546875,-12.6953125,-90.576171875,-1.12646484375,-1.09619140625,-0.00341796875
181,66.95556640625,-7.2021484375,-79.28466796875,-1.10693359375,-0.95263671875,-0.06591796875
182,58.04443359375,0.54931640625,-65.97900390625,-1.14404296875,-0.55029296875,0.09814453125
183,22.8271484375,20.69091796875,-42.17529296875,-1.18603515625,-0.52978515625,-0.228515625
184,20.1416015625,32.1044921875,-23.25439453125,-1.34619140625,-0.63818359375,-0.279296875
185,19.95849609375,38.57421875,-10.31494140625,-1.34375,-0.4814453125,-0.14404296875
186,7.8125,47.91259765625,1.8310546875,-1.25341796875,-0.3720703125,-0.13818359375
187,-6.103515625,56.57958984375,11.90185546875,-1.16845703125,-0.37548828125,-0.10302734375
188,-19.71435546875,62.31689453125,22.216796875,-1.09814453125,-0.470703125,-0.0302734375
189,-25.634765625,63.3544921875,34.60693359375,-1.00537109375,-0.630859375,-0.00048828125
190,-30.1513671875,62.19482421875,48.03466796875,-0.8642578125,-0.681640625,0.064453125
191,-38.818359375,61.82861328125,58.41064453125,-0.7607421875,-0.73486328125,0.1533203125
192,-46.56982421875,59.08203125,67.2607421875,-0.6474609375,-0.82861328125,0.2255859375
193,-56.09130859375,58.837890625,77.94189453125,-0.49951171875,-0.92626953125,0.31591796875
194,-61.82861328125,57.67822265625,86.36474609375,-0.41845703125,-1.01708984375,0.40234375
195,-62.92724609375,52.978515625,88.134765625,-0.35400390625,-1.0751953125,0.4873046875
196,-58.7158203125,44.3115234375,85.8154296875,-0.2919921875,-1.154296875,0.49365234375
197,-48.03466796875,33.75244140625,80.810546875,-0.2958984375,-1.19482421875,0.51806640625
198,-38.26904296875,22.27783203125,73.42529296875,-0.27587890625,-1.17822265625,0.48681640625
199,-32.65380859375,8.48388671875,65.61279296875,-0.2607421875,-1.17626953125,0.4404296875
200,-28.3203125,-6.34765625,57.18994140625,-0.248046875,-1.1845703125,0.384765625
201,-28.6865234375,-21.42333984375,45.654296875,-0.234375,-1.13330078125,0.35546875
202,-32.16552734375,-37.109375,33.87451171875,-0.1962890625,-1.11083984375,0.3369140625
203,-37.41455078125,-51.69677734375,23.86474609375,-0.18994140625,-1.06396484375,0.31787109375
204,-42.724609375,-66.10107421875,16.6015625,-0.197265625,-1.0771484375,0.29638671875
205,-41.8701171875,-78.369140625,19.04296875,-0.2021484375,-1.18310546875,0.24951171875
206,-33.0810546875,-85.44921875,36.56005859375,-0.20361328125,-1.22265625,0.22607421875
207,-25.7568359375,-84.04541015625,56.45751953125,-0.1650390625,-1.05419921875,0.25634765625
208,-37.90283203125,-73.79150390625,70.6787109375,-0.10107421875,-0.80615234375,0.35546875
209,-53.8330078125,-60.60791015625,75.439453125,-0.1240234375,-0.830078125,0.40771484375
210,-51.45263671875,-53.03955078125,77.5146484375,-0.18017578125,-1.0126953125,0.38232421875
211,-35.21728515625,-51.57470703125,80.74951171875,-0.1533203125,-1.1025390625,0.4248046875
212,-22.94921875,-50.78125,84.53369140625,-0.060546875,-1.12255859375,0.43212890625
213,-20.263671875,-49.74365234375,87.70751953125,0.07763671875,-1.1494140625,0.51708984375
214,-15.869140625,-52.42919921875,90.02685546875,0.16455078125,-1.337890625,0.4384765625
215,0.6103515625,-62.01171875,83.3740234375,0.25,-1.451171875,0.4296875
216,21.6064453125,-72.20458984375,66.162109375,0.43701171875,-1.46435546875,0.42578125
217,32.65380859375,-76.904296875,47.9736328125,0.626953125,-1.3251953125,0.46337890625
218,31.73828125,-75.3173828125,31.8603515625,0.73193359375,-1.17919921875,0.53076171875
219,19.34814453125,-69.64111328125,19.95849609375,0.7685546875,-1.06982421875,0.57568359375
220,3.90625,-59.14306640625,13.671875,0.74560546875,-1.05126953125,0.58154296875
221,-1.64794921875,-51.025390625,5.43212890625,0.6103515625,-1.1640625,0.625
222,9.21630859375,-50.29296875,-10.009765625,0.48681640625,-1.2822265625,0.6201171875
223,23.5595703125,-50.78125,-27.89306640625,0.46923828125,-1.27294921875,0.59619140625
224,31.982421875,-48.03466796875,-44.61669921875,0.46337890625,-1.2138671875,0.54443359375
225,5.31005859375,-10.31494140625,-68.359375,0.68408203125,-1.34033203125,-0.09912109375
226,-73.66943359375,33.02001953125,-91.24755859375,0.28271484375,-1.6240234375,-0.0244140625
227,-29.6630859375,38.818359375,-92.529296875,-0.20458984375,-1.55029296875,-0.0341796875
228,14.2822265625,78.857421875,-79.9560546875,-0.6650390625,-1.22607421875,-0.06787109375
229,-1.40380859375,86.48681640625,-73.974609375,-0.92431640625,-1.31787109375,0.05712890625
230,24.7802734375,74.3408203125,-86.5478515625,-0.86181640625,-0.76171875,-0.6083984375
231,34.66796875,28.50341796875,-100.64697265625,-0.654296875,-1.0478515625,-0.11474609375
232,46.08154296875,-8.30078125,-101.9287109375,-0.40673828125,-1.15087890625,-0.0361328125
233,27.587890625,-32.16552734375,-86.42578125,-0.0244140625,-1.30859375,0.203125
234,31.494140625,-25.69580078125,-67.2607421875,0.0439453125,-1.115234375,0.60986328125
235,1.77001953125,28.86962890625,-50.84228515625,0.20458984375,-1.17822265625,1.22265625
236,20.3857421875,-19.6533203125,-28.4423828125,-0.66064453125,-1.25,-0.5576171875
237,11.71875,-34.60693359375,-15.80810546875,-0.2939453125,-1.25048828125,0.37451171875
238,-4.2724609375,-20.01953125,-20.44677734375,-0.2724609375,-0.841796875,0.44970703125
239,0.06103515625,-17.2119140625,-16.78466796875,-0.1298828125,-1.14599609375,0.21826171875
240,0.1220703125,-10.6201171875,-12.87841796875,-0.2109375,-0.97900390625,0.40234375
241,-3.23486328125,-9.765625,-13.3056640625,-0.2841796875,-1.02392578125,0.18701171875
242,-3.90625,-8.7890625,-11.90185546875,-0.20849609375,-1.10302734375,0.28271484375
243,-2.13623046875,-6.77490234375,-11.1083984375,-0.2646484375,-1.04150390625,0.22509765625
244,-4.45556640625,-7.75146484375,-10.1318359375,-0.22705078125,-1.05859375,0.27099609375
245,1.220703125,-6.103515625,-8.97216796875,-0.26611328125,-1.03271484375,0.25390625
246,-3.11279296875,-9.3994140625,-9.46044921875,-0.25439453125,-1.03466796875,0.29150390625
247,-7.2021484375,-10.07080078125,-11.16943359375,-0.25,-0.9892578125,0.310546875
248,-12.3291015625,-9.21630859375,-12.0849609375,-0.2353515625,-1.0146484375,0.32177734375
249,-13.7939453125,-10.25390625,-10.8642578125,-0.224609375,-1.0341796875,0.30078125
250,-14.6484375,-11.8408203125,-8.6669921875,-0.22314453125,-1.0302734375,0.306640625
251,-12.75634765625,-8.4228515625,-7.38525390625,-0.2060546875,-1.0400390625,0.3193359375
252,-15.31982421875,-3.84521484375,-7.2021484375,-0.216796875,-1.025390625,0.30810546875
253,-13.916015625,-1.220703125,-7.32421875,-0.240234375,-1.0283203125,0.26611328125
254,-13.85498046875,0.48828125,-7.8125,-0.2236328125,-1.037109375,0.2890625
255,-12.939453125,2.62451171875,-7.75146484375,-0.21728515625,-1.02490234375,0.27490234375
256,-13.7939453125,2.8076171875,-8.30078125,-0.236328125,-1.01513671875,0.28857421875
257,-17.08984375,0.91552734375,-9.33837890625,-0.2333984375,-1.015625,0.27880859375
258,-18.85986328125,-1.220703125,-7.75146484375,-0.22265625,-1.0234375,0.2880859375
259,-19.59228515625,-2.3193359375,-6.77490234375,-0.2158203125,-1.03173828125,0.26953125
260,-20.56884765625,-2.99072265625,-6.4697265625,-0.22412109375,-1.03857421875,0.25146484375
261,-18.9208984375,-2.01416015625,-5.79833984375,-0.1943359375,-1.05224609375,0.23779296875
262,-15.380859375,-0.18310546875,-5.9814453125,-0.21826171875,-1.05615234375,0.18798828125
263,-13.85498046875,0.91552734375,-6.28662109375,-0.212890625,-1.0380859375,0.25146484375
264,-15.5029296875,0.67138671875,-7.50732421875,-0.22265625,-1.01123046875,0.25830078125
265,-17.27294921875,1.40380859375,-9.27734375,-0.2265625,-1.03271484375,0.23388671875
266,-19.1650390625,2.01416015625,-10.498046875,-0.21044921875,-1.04150390625,0.23779296875
267,-20.263671875,3.47900390625,-11.962890625,-0.21826171875,-1.0419921875,0.24365234375
268,-20.01953125,3.11279296875,-12.51220703125,-0.2275390625,-1.07763671875,0.20849609375
269,-18.73779296875,4.21142578125,-13.0615234375,-0.2021484375,-1.0517578125,0.22021484375
270,-17.39501953125,6.77490234375,-14.0380859375,-0.21337890625,-1.05419921875,0.21728515625
271,-17.333984375,8.36181640625,-15.93017578125,-0.21630859375,-1.06689453125,0.22314453125
272,-19.287109375,9.033203125,-17.27294921875,-0.18359375,-1.09130859375,0.23388671875
273,-17.27294921875,10.498046875,-20.81298828125,-0.2373046875,-1.1494140625,0.2138671875
274,-15.56396484375,12.87841796875,-23.01025390625,-0.3076171875,-1.1494140625,0.2646484375
275,-5.79833984375,14.22119140625,-25.45166015625,-0.21826171875,-1.03076171875,0.17333984375
276,-2.9296875,13.12255859375,-32.04345703125,-0.30224609375,-1.2587890625,0.2978515625
277,-2.0751953125,14.58740234375,-38.4521484375,-0.26953125,-1.08544921875,0.17578125
278,7.080078125,15.44189453125,-42.54150390625,-0.25439453125,-1.21044921875,0.1845703125
279,16.90673828125,18.310546875,-50.23193359375,-0.32421875,-1.43994140625,0.212890625
280,35.2783203125,26.4892578125,-59.26513671875,-0.25146484375,-1.2177734375,0.20361328125
281,39.4287109375,28.9306640625,-68.90869140625,-0.3779296875,-1.3583984375,0.2802734375
282,43.39599609375,33.50830078125,-82.82470703125,-0.3857421875,-1.3857421875,0.2734375
283,40.771484375,39.6728515625,-96.61865234375,-0.3330078125,-1.31005859375,0.31103515625
284,36.9873046875,37.2314453125,-114.501953125,-0.42138671875,-1.36572265625,0.3173828125
285,26.3671875,38.39111328125,-136.1083984375,-0.46875,-1.26513671875,0.31884765625
286,19.4091796875,33.5693359375,-159.3017578125,-0.47998046875,-1.26806640625,0.37744140625
287,15.56396484375,28.076171875,-181.5185546875,-0.50341796875,-1.38916015625,0.27685546875
288,2.86865234375,18.1884765625,-203.67431640625,-0.4716796875,-1.26318359375,0.40625
289,-3.90625,15.56396484375,-217.6513671875,-0.5771484375,-1.43505859375,0.37548828125
290,-24.84130859375,12.63427734375,-255.859375,-0.560546875,-1.28515625,0.4306640625
291,-28.99169921875,9.8876953125,-284.7900390625,-0.61572265625,-1.3857421875,0.30322265625
292,-46.875,8.23974609375,-318.05419921875,-0.53759765625,-1.29541015625,0.20263671875
293,-58.28857421875,9.94873046875,-349.67041015625,-0.5869140625,-1.33984375,0.1708984375
294,-62.31689453125,-4.8828125,-371.58203125,-0.56201171875,-1.41064453125,0.1171875
295,-49.6826171875,-20.56884765625,-395.44677734375,-0.4345703125,-2.02294921875,0.3740234375
296,-29.1748046875,-35.58349609375,-412.7197265625,-0.26611328125,-1.77490234375,0.5859375
297,-80.2001953125,-31.43310546875,-432.18994140625,-0.01318359375,-2.564453125,0.3486328125
298,-13.48876953125,-37.2314453125,-421.142578125,0.2861328125,-3.28564453125,0.4521484375
299,-9.27734375,-20.93505859375,-398.8037109375,0.66845703125,-1.87890625,0.3525390625
300,-76.72119140625,19.34814453125,-365.41748046875,-0.10302734375,-1.9521484375,-0.05029296875
301,-32.40966796875,41.1376953125,-344.3603515625,-1.044921875,-2.36474609375,-0.30859375
302,54.62646484375,128.84521484375,-331.84814453125,0.02392578125,-0.69287109375,-0.87060546875
303,11.77978515625,241.69921875,-38.39111328125,-1.3271484375,-1.78369140625,-1.529296875
304,65.12451171875,222.900390625,81.84814453125,-1.52880859375,-3.26904296875,0.13525390625
305,210.8154296875,188.04931640625,138.5498046875,-1.87255859375,-1.84814453125,-0.595703125
306,251.46484375,163.14697265625,158.87451171875,-1.43017578125,-0.79150390625,-0.20068359375
307,219.7265625,137.0849609375,166.6259765625,-1.31396484375,-0.31689453125,-0.1171875
308,174.74365234375,112.97607421875,170.59326171875,-1.1767578125,-0.1328125,-0.05126953125
309,125.18310546875,87.158203125,178.1005859375,-1.123046875,-0.01904296875,-0.125
310,76.904296875,65.12451171875,187.92724609375,-1.05908203125,-0.13232421875,-0.02783203125
311,36.80419921875,40.95458984375,203.369140625,-1.0146484375,-0.23095703125,-0.0654296875
312,6.34765625,21.17919921875,227.783203125,-0.9072265625,-0.31982421875,-0.13134765625
313,-22.705078125,3.662109375,253.60107421875,-0.8427734375,-0.400390625,-0.1240234375
314,-48.76708984375,-11.65771484375,274.658203125,-0.7841796875,-0.45166015625,-0.11181640625
315,-73.486328125,-24.71923828125,291.8701171875,-0.71875,-0.56201171875,-0.072265625
316,-93.75,-33.87451171875,305.96923828125,-0.6572265625,-0.67724609375,-0.0537109375
317,-112.48779296875,-37.41455078125,320.556640625,-0.51416015625,-0.79150390625,-0.01171875
318,-126.708984375,-32.16552734375,337.7685546875,-0.349609375,-0.93994140625,-0.00439453125
319,-139.46533203125,-21.30126953125,349.67041015625,-0.26708984375,-1.08935546875,0.01123046875
320,-145.56884765625,-6.40869140625,351.318359375,-0.1953125,-1.23779296875,0.064453125
321,-146.78955078125,10.986328125,346.98486328125,-0.0908203125,-1.36962890625,0.12255859375
322,-141.41845703125,26.06201171875,342.8955078125,-0.0712890625,-1.57373046875,0.1787109375
323,-123.84033203125,33.75244140625,342.6513671875,-0.0966796875,-1.7578125,0.22705078125
324,-100.15869140625,37.7197265625,344.05517578125,-0.130859375,-1.8623046875,0.32080078125
325,-80.99365234375,38.330078125,342.1630859375,-0.10546875,-1.90576171875,0.39306640625
326,-68.359375,34.912109375,336.42578125,-0.07421875,-1.9677734375,0.3994140625
327,-56.396484375,26.9775390625,325.50048828125,-0.0234375,-2.0625,0.376953125
328,-50.72021484375,36.62109375,308.89892578125,0.24462890625,-1.7900390625,0.60498046875
329,-104.248046875,50.9033203125,284.85107421875,0.56494140625,-1.6572265625,0.71533203125
330,-123.47412109375,60.546875,272.03369140625,0.64794921875,-2.2021484375,0.701171875
331,-98.44970703125,46.875,275.20751953125,0.6015625,-2.72265625,0.7841796875
332,-41.56494140625,18.49365234375,274.47509765625,0.71435546875,-2.873046875,0.7841796875
333,-1.0986328125,-7.6904296875,263.0615234375,1.0478515625,-2.626953125,0.72705078125
334,17.7001953125,-24.7802734375,239.2578125,1.45361328125,-2.4423828125,0.498046875
335,26.85546875,-27.587890625,207.6416015625,1.87060546875,-2.333984375,0.228515625
336,17.63916015625,-15.13671875,172.54638671875,2.2607421875,-2.11083984375,0.212890625
337,-9.21630859375,-3.173828125,134.33837890625,2.3662109375,-1.9619140625,0.359375
338,-29.84619140625,3.35693359375,92.95654296875,2.21044921875,-1.80615234375,0.630859375
339,-179.3212890625,155.09033203125,-91.064453125,-0.32861328125,-2.82958984375,3.15185546875
340,108.7646484375,-67.5048828125,-96.74072265625,1.27099609375,0.0029296875,0.76171875
341,-20.56884765625,-26.79443359375,-196.8994140625,2.66796875,-1.8466796875,1.90771484375
342,-71.59423828125,71.47216796875,-256.40869140625,2.13232421875,-1.51220703125,1.3564453125
343,44.61669921875,93.93310546875,-222.22900390625,-1.3251953125,-0.4345703125,-0.11669921875
344,89.90478515625,10.07080078125,-251.953125,-1.3095703125,-1.07080078125,-0.72216796875
345,44.7998046875,-127.44140625,-244.20166015625,0.201171875,-2.611328125,-0.19384765625
346,-12.39013671875,-107.91015625,-234.19189453125,0.07470703125,-1.65625,0.97021484375
347,43.3349609375,-100.341796875,-160.2783203125,-0.00732421875,-1.16162109375,0.06005859375
348,63.3544921875,-73.1201171875,-115.78369140625,0.0078125,-1.1240234375,0.70556640625
349,34.48486328125,-79.833984375,-122.61962890625,-0.28466796875,-1.31005859375,0.22119140625
350,50.4150390625,-88.8671875,-119.32373046875,-0.2001953125,-0.93017578125,0.1044921875
351,42.17529296875,-78.7353515625,-111.81640625,-0.072265625,-1.05419921875,0.42138671875
352,16.357421875,-65.185546875,-103.1494140625,0.21240234375,-1.28759765625,0.41748046875
353,-23.49853515625,-89.78271484375,-42.3583984375,1.0791015625,-0.642578125,0.14306640625
354,43.27392578125,11.3525390625,-22.216796875,0.13525390625,-1.21826171875,1.55126953125
355,-19.59228515625,-18.98193359375,-23.01025390625,-0.33056640625,-1.263671875,-0.57373046875
356,6.103515625,-6.53076171875,-17.2119140625,-0.10205078125,-1.0234375,0.560546875
357,1.77001953125,-7.26318359375,-15.68603515625,-0.2919921875,-1.01708984375,0.17529296875
358,-1.708984375,-10.19287109375,-15.7470703125,-0.228515625,-1.0390625,0.27734375
359,-4.0283203125,-8.30078125,-12.26806640625,-0.20361328125,-1.03515625,0.29833984375
360,-3.7841796875,-7.01904296875,-9.521484375,-0.2421875,-1.025390625,0.294921875
361,-7.87353515625,-9.46044921875,-8.97216796875,-0.25390625,-1.02978515625,0.27734375
362,-10.31494140625,-10.009765625,-9.46044921875,-0.24365234375,-1.025390625,0.259765625
363,-7.50732421875,-8.11767578125,-9.09423828125,-0.232421875,-1.0576171875,0.228515625
364,-2.25830078125,-5.18798828125,-7.8125,-0.2177734375,-1.06494140625,0.220703125
365,5.18798828125,-2.44140625,-6.2255859375,-0.22705078125,-1.06201171875,0.20703125
366,5.55419921875,-6.2255859375,-7.75146484375,-0.26904296875,-1.0244140625,0.2236328125
367,7.87353515625,-4.82177734375,-8.97216796875,-0.24609375,-1.044921875,0.2373046875
368,10.498046875,-3.72314453125,-11.04736328125,-0.26318359375,-1.04443359375,0.201171875
369,10.19287109375,-3.72314453125,-12.3291015625,-0.22998046875,-1.041015625,0.25927734375
370,9.27734375,-4.0283203125,-11.90185546875,-0.2294921875,-1.01171875,0.283203125
371,8.9111328125,-6.4697265625,-12.51220703125,-0.23583984375,-1.03076171875,0.26220703125
372,5.92041015625,-7.38525390625,-13.7939453125,-0.21337890625,-1.01318359375,0.2958984375
373,4.21142578125,-6.9580078125,-14.58740234375,-0.2578125,-1.01611328125,0.26416015625
374,-0.3662109375,-11.3525390625,-16.9677734375,-0.23486328125,-1.01904296875,0.240234375
375,5.859375,-14.22119140625,-16.2353515625,-0.15087890625,-0.9736328125,0.27392578125
376,5.4931640625,-9.21630859375,-16.7236328125,-0.20654296875,-1.07958984375,0.27587890625
377,11.90185546875,-7.9345703125,-18.00537109375,-0.189453125,-1.01708984375,0.2919921875
378,5.67626953125,-3.35693359375,-18.1884765625,-0.17431640625,-1.0107421875,0.35009765625
379,0.9765625,-2.50244140625,-19.287109375,-0.2080078125,-1.01318359375,0.29931640625
380,-2.86865234375,1.8310546875,-21.54541015625,-0.185546875,-1.05712890625,0.29931640625
381,2.9296875,5.55419921875,-28.86962890625,-0.2666015625,-1.3232421875,0.34423828125
382,1.953125,10.80322265625,-32.71484375,-0.193359375,-1.1337890625,0.2421875
383,7.62939453125,16.05224609375,-36.43798828125,-0.1982421875,-1.150390625,0.2958984375
384,5.4931640625,18.9208984375,-42.05322265625,-0.30419921875,-1.328125,0.36083984375
385,24.169921875,26.611328125,-47.54638671875,-0.216796875,-1.1650390625,0.36669921875
386,35.15625,24.169921875,-54.26025390625,-0.27294921875,-1.2978515625,0.330078125
387,38.330078125,32.77587890625,-66.162109375,-0.3662109375,-1.28466796875,0.3583984375
388,36.4990234375,38.75732421875,-78.43017578125,-0.37890625,-1.2568359375,0.47021484375
389,27.64892578125,37.109375,-89.41650390625,-0.35546875,-1.16650390625,0.4619140625
390,11.41357421875,36.07177734375,-104.3701171875,-0.39404296875,-1.18212890625,0.47119140625
391,-1.46484375,32.958984375,-118.95751953125,-0.4326171875,-1.23876953125,0.4833984375
392,-18.4326171875,34.11865234375,-141.11328125,-0.40673828125,-1.26171875,0.37548828125
393,-14.22119140625,33.3251953125,-165.71044921875,-0.486328125,-1.4384765625,0.24462890625
394,-12.5732421875,36.865234375,-195.37353515625,-0.4697265625,-1.41650390625,0.216796875
395,-21.54541015625,36.7431640625,-228.1494140625,-0.52978515625,-1.43212890625,0.2626953125
396,-30.82275390625,35.400390625,-260.55908203125,-0.529296875,-1.423828125,0.3818359375
397,-43.3349609375,25.634765625,-296.2646484375,-0.70263671875,-1.427734375,0.38720703125
398,-55.60302734375,20.6298828125,-333.984375,-0.8125,-1.4619140625,0.46142578125
399,-66.46728515625,9.21630859375,-371.9482421875,-0.83642578125,-1.43408203125,0.24755859375
400,-64.94140625,-18.9208984375,-392.822265625,-0.87060546875,-1.34033203125,0.1806640625
401,-60.4248046875,-50.6591796875,-420.83740234375,-0.56298828125,-2.21923828125,0.72412109375
402,-63.29345703125,-70.6787109375,-444.7021484375,-0.57177734375,-1.59228515625,0.35302734375
403,-69.4580078125,-80.13916015625,-444.27490234375,-0.16943359375,-3.26953125,0.07373046875
404,1.708984375,-42.724609375,-445.4345703125,-0.091796875,-3.3125,0.70166015625
405,-25.45166015625,-45.2880859375,-411.865234375,0.029296875,-2.3525390625,-0.0576171875
406,9.033203125,-28.1982421875,-387.26806640625,-0.88818359375,-2.6474609375,-0.66650390625
407,41.32080078125,48.52294921875,-380.4931640625,-1.60986328125,-0.8720703125,-0.61083984375
408,-94.78759765625,191.58935546875,-156.005859375,0.25244140625,-1.55517578125,-0.8115234375
409,-49.1943359375,162.4755859375,34.85107421875,-1.70068359375,-2.4951171875,0.24951171875
410,128.2958984375,158.38623046875,122.1923828125,-1.95361328125,-2.173828125,-1.0244140625
411,214.111328125,140.19775390625,155.57861328125,-1.51806640625,-1.0986328125,-0.453125
412,215.75927734375,136.04736328125,172.119140625,-1.1171875,-0.38916015625,-0.412109375
413,178.22265625,136.16943359375,179.5654296875,-0.8916015625,0.037109375,-0.22998046875
414,118.0419921875,138.00048828125,195.556640625,-0.72412109375,0.17431640625,-0.1748046875
415,59.63134765625,133.544921875,217.71240234375,-0.85546875,-0.01904296875,-0.232421875
416,33.5693359375,114.80712890625,236.75537109375,-0.96923828125,-0.36962890625,-0.19775390625
417,31.67724609375,89.2333984375,252.13623046875,-0.94287109375,-0.548828125,-0.22216796875
418,28.4423828125,64.27001953125,264.2822265625,-0.78271484375,-0.54638671875,-0.2158203125
419,-1.5869140625,51.94091796875,271.1181640625,-0.5859375,-0.376953125,-0.09228515625
420,-51.513671875,52.24609375,272.705078125,-0.3681640625,-0.34130859375,-0.08056640625
421,-107.421875,52.42919921875,273.193359375,-0.291015625,-0.4814453125,-0.02392578125
422,-144.71435546875,46.56982421875,272.705078125,-0.33984375,-0.75634765625,0.01904296875
423,-157.1044921875,31.92138671875,276.7333984375,-0.34716796875,-1.1181640625,0.05517578125
424,-151.0009765625,14.7705078125,283.203125,-0.2490234375,-1.30078125,0.134765625
425,-151.67236328125,0.18310546875,291.93115234375,-0.11669921875,-1.35888671875,0.27783203125
426,-152.2216796875,-13.18359375,302.24609375,-0.0791015625,-1.4990234375,0.31396484375
427,-140.869140625,-28.86962890625,311.4013671875,-0.0849609375,-1.685546875,0.3232421875
428,-124.32861328125,-45.47119140625,318.2373046875,-0.06787109375,-1.75390625,0.3408203125
429,-122.4365234375,-48.88916015625,320.4345703125,0.08544921875,-1.6181640625,0.40625
430,-139.2822265625,-41.259765625,318.115234375,0.228515625,-1.57470703125,0.43896484375
431,-150.32958984375,-32.16552734375,314.88037109375,0.26416015625,-1.748046875,0.38671875
432,-138.97705078125,-28.3203125,310.302734375,0.2412109375,-2.01220703125,0.32373046875
433,-117.5537109375,-17.39501953125,300.84228515625,0.3681640625,-1.89990234375,0.44482421875
434,-119.20166015625,-6.16455078125,282.1044921875,0.47021484375,-1.8330078125,0.48193359375
435,-109.9853515625,2.685546875,261.5966796875,0.431640625,-2.076171875,0.44970703125
436,-80.6884765625,4.57763671875,250.9765625,0.3525390625,-2.31982421875,0.4443359375
437,-42.6025390625,0.0,245.9716796875,0.3330078125,-2.3681640625,0.42626953125
438,-10.009765625,-4.69970703125,240.41748046875,0.373046875,-2.31005859375,0.33251953125
439,9.21630859375,-6.04248046875,228.8818359375,0.41796875,-2.17431640625,0.2626953125
440,17.578125,-7.99560546875,209.9609375,0.53076171875,-2.0927734375,0.2275390625
441,11.77978515625,-7.080078125,187.744140625,0.73681640625,-1.908203125,0.31787109375
442,-13.5498046875,-6.7138671875,164.9169921875,0.8994140625,-1.67138671875,0.41455078125
443,-48.52294921875,-11.04736328125,138.0615234375,0.96044921875,-1.45556640625,0.53857421875
444,-89.4775390625,-17.4560546875,99.609375,1.15576171875,-1.259765625,0.74951171875
445,-101.62353515625,-30.8837890625,63.04931640625,1.43505859375,-1.74609375,0.81005859375
446,-65.61279296875,-47.607421875,36.68212890625,1.8330078125,-2.06298828125,0.8017578125
447,-26.0009765625,-52.490234375,13.48876953125,2.23193359375,-1.86669921875,0.900390625
448,-10.498046875,-46.20361328125,-15.93017578125,2.345703125,-1.62744140625,0.9609375
449,5.67626953125,-44.00634765625,-54.50439453125,2.14306640625,-1.75634765625,0.9404296875
450,28.25927734375,-50.78125,-95.703125,1.849609375,-1.72802734375,0.85791015625
451,7.62939453125,42.17529296875,-174.560546875,0.6337890625,-1.88427734375,1.56640625
452,383.9111328125,2.13623046875,-171.81396484375,0.58740234375,1.88623046875,0.037109375
453,-50.23193359375,50.1708984375,-171.08154296875,-1.8173828125,-0.978515625,-0.0478515625
454,6.34765625,24.71923828125,-185.4248046875,-2.42431640625,0.72705078125,-0.48876953125
455,-62.19482421875,-140.13671875,-247.61962890625,-0.35693359375,-2.3359375,-0.3564453125
456,1.77001953125,-139.95361328125,-249.755859375,0.23291015625,-1.404296875,0.66064453125
457,67.138671875,-145.44677734375,-225.4638671875,0.158203125,-2.76611328125,0.04296875
458,31.92138671875,-124.1455078125,-186.03515625,0.2890625,-1.41650390625,0.67626953125
459,72.44873046875,-113.037109375,-166.07666015625,0.13720703125,-1.576171875,0.44287109375
460,65.12451171875,-96.37451171875,-157.470703125,-0.16015625,-0.69921875,0.279296875
461,11.90185546875,-100.52490234375,-131.2255859375,0.341796875,-1.572265625,0.17578125
462,-19.4091796875,-126.8310546875,-43.3349609375,1.11767578125,-0.97509765625,-0.046875
463,9.521484375,6.04248046875,-19.83642578125,0.44287109375,-1.37158203125,1.94140625
464,-14.83154296875,-21.240234375,-26.55029296875,-0.50634765625,-1.11962890625,-0.87548828125
465,4.638671875,-22.64404296875,-14.46533203125,-0.12841796875,-1.015625,0.65283203125
466,4.69970703125,-6.7138671875,-14.70947265625,-0.20947265625,-1.060546875,0.21240234375
467,2.197265625,-13.18359375,-12.51220703125,-0.26953125,-1.01416015625,0.22265625
468,0.6103515625,-11.65771484375,-12.20703125,-0.21044921875,-1.03857421875,0.314453125
469,-3.41796875,-10.986328125,-8.056640625,-0.181640625,-1.0322265625,0.36572265625
470,-7.568359375,-5.2490234375,-3.35693359375,-0.17724609375,-1.01904296875,0.3876953125
471,-13.3056640625,-2.01416015625,-2.25830078125,-0.2177734375,-1.0029296875,0.32666015625
472,-17.7001953125,2.62451171875,-4.82177734375,-0.2568359375,-1.01171875,0.2900390625
473,-19.1650390625,6.65283203125,-7.568359375,-0.23974609375,-1.04150390625,0.25537109375
474,-15.80810546875,9.33837890625,-6.89697265625,-0.216796875,-1.0390625,0.26318359375
475,-10.009765625,10.1318359375,-6.2255859375,-0.23828125,-1.06005859375,0.20068359375
476,-4.0283203125,10.43701171875,-5.9814453125,-0.259765625,-1.076171875,0.1708984375
477,2.25830078125,9.27734375,-6.7138671875,-0.26171875,-1.06201171875,0.17626953125
478,9.1552734375,9.033203125,-4.94384765625,-0.22412109375,-1.07470703125,0.193359375
479,15.07568359375,8.36181640625,-4.57763671875,-0.24560546875,-1.0380859375,0.2021484375
480,15.625,3.662109375,-6.8359375,-0.2763671875,-1.04638671875,0.17919921875
481,18.37158203125,-0.1220703125,-8.97216796875,-0.2734375,-1.02392578125,0.193359375
482,13.7939453125,-5.92041015625,-13.36669921875,-0.26806640625,-0.998046875,0.25439453125
483,12.6953125,-6.4697265625,-16.11328125,-0.2509765625,-1.037109375,0.2421875
484,9.82666015625,-9.94873046875,-18.00537109375,-0.267578125,-1.01171875,0.24560546875
485,4.94384765625,-5.92041015625,-20.08056640625,-0.1640625,-0.83935546875,0.39453125
486,4.39453125,-13.61083984375,-19.34814453125,-0.22119140625,-0.9853515625,0.3154296875
487,2.50244140625,-13.24462890625,-19.47021484375,-0.21923828125,-1.03173828125,0.2958984375
488,1.03759765625,-13.12255859375,-19.34814453125,-0.19775390625,-1.048828125,0.26171875
489,3.23486328125,-13.427734375,-20.99609375,-0.23681640625,-1.103515625,0.24560546875
490,-6.103515625,-13.12255859375,-22.8271484375,-0.18896484375,-1.0634765625,0.2822265625
491,-11.16943359375,-16.90673828125,-23.3154296875,-0.20703125,-1.03955078125,0.2939453125
492,-14.09912109375,-16.05224609375,-23.3154296875,-0.1865234375,-1.10009765625,0.31787109375
493,-3.96728515625,-5.43212890625,-29.60205078125,-0.1923828125,-1.25146484375,0.33349609375
494,2.62451171875,5.37109375,-41.259765625,-0.2958984375,-1.23291015625,0.3564453125
495,16.2353515625,11.29150390625,-46.142578125,-0.2646484375,-1.1123046875,0.33935546875
496,18.85986328125,11.8408203125,-52.001953125,-0.353515625,-1.27880859375,0.37841796875
497,34.11865234375,15.07568359375,-61.82861328125,-0.251953125,-1.24658203125,0.30859375
498,31.494140625,16.29638671875,-71.71630859375,-0.375,-1.40380859375,0.40478515625
499,37.841796875,18.61572265625,-82.1533203125,-0.36865234375,-1.2021484375,0.38134765625
500,28.38134765625,19.22607421875,-95.88623046875,-0.35595703125,-1.32373046875,0.48583984375
501,19.4091796875,23.98681640625,-111.51123046875,-0.3857421875,-1.2763671875,0.39453125
502,12.51220703125,25.45166015625,-129.5166015625,-0.451171875,-1.39892578125,0.4130859375
503,3.173828125,28.3203125,-156.18896484375,-0.45361328125,-1.3134765625,0.36572265625
504,-6.7138671875,28.25927734375,-183.2275390625,-0.505859375,-1.384765625,0.36767578125
505,-12.75634765625,23.01025390625,-212.890625,-0.6142578125,-1.39599609375,0.369140625
506,-22.216796875,18.9208984375,-242.7978515625,-0.5078125,-1.28515625,0.32470703125
507,-33.50830078125,23.98681640625,-274.35302734375,-0.5263671875,-1.33642578125,0.427734375
508,-50.4150390625,23.86474609375,-308.59375,-0.60498046875,-1.37744140625,0.31396484375
509,-57.06787109375,24.5361328125,-343.505859375,-0.6533203125,-1.38427734375,0.32177734375
510,-66.89453125,25.32958984375,-375.54931640625,-0.619140625,-1.28564453125,0.1533203125
511,-51.7578125,17.63916015625,-399.0478515625,-0.70361328125,-1.34521484375,-0.01171875
512,-34.7900390625,-12.5732421875,-422.7294921875,-0.4912109375,-1.9072265625,0.18359375
513,-10.986328125,-34.66796875,-439.94140625,-0.26708984375,-1.95703125,0.65478515625
514,-71.22802734375,-30.8837890625,-476.98974609375,-0.38134765625,-2.705078125,0.4140625
515,-11.3525390625,-41.259765625,-476.74560546875,-0.083984375,-2.8310546875,0.3447265625
516,24.96337890625,-19.775390625,-462.2802734375,0.3759765625,-2.3701171875,0.478515625
517,-34.5458984375,1.3427734375,-442.0166015625,-0.44287109375,-2.5361328125,0.03369140625
518,10.7421875,13.18359375,-430.60302734375,-1.1787109375,-2.5576171875,-0.0361328125
519,76.47705078125,42.1142578125,-443.4814453125,-1.173828125,-2.4521484375,-0.97998046875
520,-59.08203125,163.75732421875,-297.91259765625,0.9169921875,-0.2158203125,0.37109375
521,-26.18408203125,168.02978515625,-13.0615234375,-0.86474609375,-1.80029296875,-0.31689453125
522,101.50146484375,147.52197265625,117.3095703125,-1.54296875,-2.5322265625,-0.89453125
523,202.0263671875,125.1220703125,163.6962890625,-1.26953125,-1.67138671875,-0.28955078125
524,214.29443359375,130.9814453125,181.57958984375,-0.87548828125,-0.69580078125,-0.37744140625
525,162.2314453125,144.59228515625,195.12939453125,-0.58642578125,0.03173828125,-0.15234375
526,83.55712890625,164.9169921875,214.2333984375,-0.5361328125,0.09716796875,-0.1533203125
527,24.7802734375,171.38671875,240.17333984375,-0.73828125,-0.13720703125,-0.1953125
528,2.5634765625,159.5458984375,259.8876953125,-0.9443359375,-0.44287109375,-0.181640625
529,7.080078125,135.7421875,273.01025390625,-1.04638671875,-0.576171875,-0.171875
530,8.4228515625,106.8115234375,280.8837890625,-0.9443359375,-0.4697265625,-0.107421875
531,-15.07568359375,87.58544921875,290.771484375,-0.744140625,-0.23046875,-0.0224609375
532,-57.373046875,76.5380859375,304.38232421875,-0.66455078125,-0.19384765625,-0.0390625
533,-99.4873046875,64.88037109375,316.89453125,-0.69140625,-0.35546875,-0.0341796875
534,-130.37109375,51.57470703125,325.86669921875,-0.71533203125,-0.53857421875,-0.03662109375
535,-149.169921875,37.109375,331.787109375,-0.69677734375,-0.74267578125,-0.03173828125
536,-158.5693359375,29.11376953125,335.8154296875,-0.5400390625,-0.92724609375,-0.03564453125
537,-172.119140625,32.65380859375,340.9423828125,-0.369140625,-0.9814453125,0.08837890625
538,-191.162109375,47.9736328125,344.54345703125,-0.27587890625,-1.109375,0.123046875
539,-214.29443359375,69.15283203125,343.1396484375,-0.19384765625,-1.2255859375,0.23681640625
540,-239.31884765625,87.46337890625,338.5009765625,-0.13916015625,-1.43212890625,0.2890625
541,-248.9013671875,88.80615234375,334.65576171875,-0.25390625,-1.81103515625,0.4052734375
542,-231.3232421875,68.17626953125,334.04541015625,-0.40576171875,-2.20068359375,0.45947265625
543,-187.98828125,31.79931640625,338.43994140625,-0.47998046875,-2.5107421875,0.4921875
544,-132.080078125,-13.61083984375,344.8486328125,-0.39111328125,-2.67041015625,0.4873046875
545,-90.9423828125,-45.41015625,347.412109375,-0.1416015625,-2.58447265625,0.47119140625
546,-75.1953125,-63.96484375,343.75,0.16845703125,-2.48193359375,0.4150390625
547,-65.24658203125,-70.12939453125,334.9609375,0.49072265625,-2.51318359375,0.28076171875
548,-98.388671875,-36.2548828125,316.0400390625,0.8310546875,-1.63671875,0.7734375
549,-130.43212890625,-22.8271484375,306.33544921875,1.05615234375,-2.599609375,0.4873046875
550,-112.9150390625,-24.84130859375,309.02099609375,1.03662109375,-2.8623046875,0.5380859375
551,-66.650390625,-44.98291015625,304.931640625,1.07763671875,-2.908203125,0.7451171875
552,-26.7333984375,-67.138671875,279.4189453125,1.39892578125,-2.6943359375,0.7666015625
553,-17.27294921875,-84.716796875,240.234375,1.8828125,-2.44921875,0.68310546875
554,-21.66748046875,-90.51513671875,193.17626953125,2.27490234375,-2.279296875,0.52197265625
555,-37.17041015625,-91.36962890625,137.14599609375,2.55078125,-2.0146484375,0.5146484375
556,-57.55615234375,-84.53369140625,73.974609375,2.6630859375,-1.70361328125,0.5517578125
557,-114.1357421875,-63.41552734375,13.73291015625,2.7919921875,-1.10205078125,0.96728515625
558,-148.25439453125,-21.17919921875,-48.7060546875,2.37158203125,-1.68359375,1.23828125
559,278.564453125,18.06640625,-194.7021484375,2.4326171875,-2.666015625,1.93115234375
560,-102.35595703125,66.71142578125,-275.45166015625,1.13427734375,-1.05810546875,1.4208984375
561,-69.2138671875,49.1943359375,-277.16064453125,-1.7919921875,-0.1943359375,0.73974609375
562,-34.1796875,-85.26611328125,-332.3974609375,-0.7451171875,-2.94677734375,-0.94091796875
563,5.31005859375,-163.2080078125,-297.42431640625,0.49169921875,-3.40771484375,0.0361328125
564,39.85595703125,-104.79736328125,-257.99560546875,0.0908203125,-2.427734375,0.80615234375
565,62.19482421875,-126.46484375,-205.2001953125,-0.3681640625,-1.13623046875,-0.2333984375
566,58.837890625,-144.53125,-176.26953125,-0.1220703125,-1.1123046875,0.4736328125
567,89.599609375,-127.685546875,-160.15625,0.13232421875,-0.93701171875,0.67041015625
568,66.0400390625,-76.35498046875,-164.00146484375,-0.11181640625,-0.94091796875,0.71044921875
569,22.94921875,-84.89990234375,-171.142578125,-0.07958984375,-1.1513671875,-0.09521484375
570,-42.6025390625,-156.92138671875,-65.73486328125,2.0498046875,-1.197265625,-0.337890625
571,70.73974609375,-14.2822265625,-36.4990234375,0.0048828125,-0.1865234375,2.82958984375
572,-10.55908203125,-38.330078125,-26.06201171875,-0.482421875,-1.19970703125,-0.73486328125
573,-6.34765625,-19.34814453125,-26.0009765625,-0.02783203125,-1.34814453125,0.45166015625
574,0.0,-9.3994140625,-17.15087890625,-0.12890625,-1.1181640625,0.21044921875
575,1.953125,-9.94873046875,-11.90185546875,-0.2177734375,-0.953125,0.32861328125
576,-10.43701171875,-11.3525390625,-11.29150390625,-0.197265625,-0.966796875,0.3984375
577,-28.74755859375,-11.23046875,-11.41357421875,-0.22509765625,-0.9521484375,0.44384765625
578,-37.9638671875,-10.43701171875,-12.451171875,-0.2294921875,-0.9951171875,0.328125
579,-45.95947265625,-9.033203125,-13.48876953125,-0.24072265625,-0.98828125,0.3154296875
580,-51.7578125,-8.056640625,-16.05224609375,-0.25048828125,-1.041015625,0.22802734375
581,-52.8564453125,-8.9111328125,-16.2353515625,-0.22607421875,-1.0712890625,0.16943359375
582,-40.34423828125,-3.23486328125,-16.7236328125,-0.22705078125,-1.09228515625,0.10009765625
583,-27.40478515625,1.46484375,-16.11328125,-0.2109375,-1.1162109375,0.12060546875
584,-13.7939453125,5.126953125,-14.22119140625,-0.18017578125,-1.099609375,0.13037109375
585,-3.41796875,8.4228515625,-12.0849609375,-0.1884765625,-1.06591796875,0.17822265625
586,2.25830078125,8.72802734375,-10.80322265625,-0.19775390625,-1.068359375,0.20654296875
587,7.99560546875,9.70458984375,-9.3994140625,-0.18505859375,-1.05029296875,0.20263671875
588,15.93017578125,9.82666015625,-7.62939453125,-0.19482421875,-1.0693359375,0.1689453125
589,26.3671875,9.3994140625,-6.591796875,-0.21630859375,-1.10302734375,0.13037109375
590,36.865234375,8.4228515625,-5.92041015625,-0.21435546875,-1.06640625,0.1748046875
591,43.5791015625,10.55908203125,-7.568359375,-0.15869140625,-1.0341796875,0.201171875
592,45.8984375,2.3193359375,-5.55419921875,-0.234375,-1.06005859375,0.1552734375
593,46.0205078125,1.46484375,-7.14111328125,-0.25830078125,-1.15234375,0.1748046875
594,40.283203125,-0.30517578125,-8.4228515625,-0.21875,-0.99609375,0.27734375
595,37.65869140625,-4.33349609375,-9.3994140625,-0.1962890625,-1.02685546875,0.3076171875
596,29.296875,-5.37109375,-11.962890625,-0.2294921875,-1.03466796875,0.33154296875
597,26.06201171875,-3.0517578125,-16.11328125,-0.21533203125,-1.0546875,0.30126953125
598,17.333984375,-0.06103515625,-22.3388671875,-0.21875,-1.056640625,0.30517578125
599,9.27734375,4.82177734375,-27.83203125,-0.20068359375,-1.095703125,0.33349609375
600,10.6201171875,10.498046875,-31.982421875,-0.2177734375,-1.15380859375,0.3056640625
601,18.6767578125,15.19775390625,-38.2080078125,-0.23779296875,-1.14892578125,0.224609375
602,2.9296875,16.845703125,-47.7294921875,-0.55322265625,-1.39404296875,0.56494140625
603,67.2607421875,23.8037109375,-53.03955078125,-0.24365234375,-1.14599609375,0.45068359375
604,34.423828125,20.751953125,-68.359375,-0.36962890625,-1.36474609375,0.3369140625
605,55.17578125,33.75244140625,-80.26123046875,-0.36572265625,-1.2783203125,0.41796875
606,38.75732421875,35.888671875,-94.17724609375,-0.3603515625,-1.23828125,0.47705078125
607,27.16064453125,36.1328125,-109.2529296875,-0.421875,-1.2177734375,0.494140625
608,4.45556640625,30.517578125,-127.3193359375,-0.4931640625,-1.20849609375,0.48876953125
609,-10.8642578125,25.08544921875,-153.076171875,-0.49609375,-1.298828125,0.50634765625
610,-21.30126953125,22.94921875,-181.15234375,-0.5458984375,-1.35107421875,0.357421875
611,-26.7333984375,20.751953125,-212.58544921875,-0.54150390625,-1.36962890625,0.3310546875
612,-39.48974609375,20.01953125,-245.1171875,-0.50439453125,-1.27392578125,0.40380859375
613,-45.2880859375,27.28271484375,-276.9775390625,-0.525390625,-1.3212890625,0.3515625
614,-62.6220703125,26.4892578125,-311.279296875,-0.53955078125,-1.2880859375,0.3369140625
615,-74.951171875,32.2265625,-347.5341796875,-0.61279296875,-1.21240234375,0.3359375
616,-88.31787109375,29.6630859375,-384.21630859375,-0.74365234375,-1.375,0.2744140625
617,-93.75,13.5498046875,-412.109375,-0.6962890625,-1.513671875,0.00390625
618,-75.01220703125,-26.2451171875,-439.75830078125,-0.51513671875,-2.06884765625,0.16943359375
619,-40.4052734375,-37.17041015625,-457.1533203125,-0.48583984375,-2.57275390625,1.02099609375
620,-98.876953125,-48.2177734375,-497.9248046875,-0.419921875,-3.08154296875,0.34619140625
621,4.45556640625,-52.67333984375,-501.03759765625,-0.0693359375,-2.92578125,0.51123046875
622,31.8603515625,-34.0576171875,-485.7177734375,-0.0556640625,-2.31298828125,0.302734375
623,-40.8935546875,-3.2958984375,-491.2109375,-0.76513671875,-1.923828125,0.06201171875
624,-16.05224609375,13.12255859375,-498.1689453125,-1.57568359375,-2.50146484375,-0.154296875
625,-24.658203125,32.1044921875,-529.4189453125,-1.611328125,-2.12744140625,-0.7197265625
626,-113.95263671875,199.0966796875,-461.181640625,1.13916015625,0.02587890625,0.90185546875
627,-50.96435546875,148.5595703125,-68.603515625,-1.43212890625,-1.205078125,-1.80419921875
628,14.09912109375,120.60546875,182.06787109375,-1.603515625,-2.67919921875,-0.60302734375
629,131.8359375,72.509765625,288.75732421875,-1.89013671875,-2.0205078125,-0.29541015625
630,171.0205078125,63.17138671875,317.87109375,-1.298828125,-0.99365234375,-0.28662109375
631,134.521484375,75.0732421875,323.66943359375,-0.86669921875,-0.3232421875,-0.2607421875
632,69.82421875,90.087890625,325.439453125,-0.6201171875,-0.10302734375,-0.22314453125
633,11.65771484375,110.595703125,341.064453125,-0.51025390625,-0.1865234375,-0.19775390625
634,-28.076171875,121.826171875,369.93408203125,-0.61767578125,-0.4189453125,-0.2724609375
635,-35.0341796875,122.314453125,395.69091796875,-0.78466796875,-0.78125,-0.3056640625
636,-21.6064453125,117.85888671875,407.40966796875,-0.78662109375,-0.921875,-0.24755859375
637,-15.93017578125,109.86328125,408.935546875,-0.77880859375,-0.81640625,-0.1796875
638,-16.845703125,102.783203125,400.390625,-0.6982421875,-0.85693359375,-0.11279296875
639,-27.28271484375,98.7548828125,384.70458984375,-0.5732421875,-0.78515625,-0.03466796875
640,-53.28369140625,102.47802734375,364.80712890625,-0.3759765625,-0.7607421875,-0.0322265625
641,-97.71728515625,115.53955078125,346.435546875,-0.2587890625,-0.720703125,0.05859375
642,-146.05712890625,130.615234375,334.53369140625,-0.22607421875,-0.89892578125,0.06591796875
643,-179.26025390625,137.5732421875,330.38330078125,-0.27294921875,-1.306640625,0.05712890625
644,-183.16650390625,133.60595703125,333.0078125,-0.375,-1.6669921875,0.1064453125
645,-173.15673828125,117.37060546875,335.5712890625,-0.46923828125,-1.87646484375,0.27783203125
646,-155.6396484375,91.30859375,334.53369140625,-0.50390625,-2.03515625,0.34716796875
647,-142.822265625,62.6220703125,331.9091796875,-0.43603515625,-2.0390625,0.44384765625
648,-139.404296875,36.2548828125,328.857421875,-0.400390625,-2.0791015625,0.4482421875
649,-136.16943359375,9.58251953125,325.0732421875,-0.3330078125,-2.2177734375,0.4306640625
650,-139.34326171875,4.33349609375,320.3125,0.0107421875,-1.95458984375,0.68212890625
651,-209.228515625,16.357421875,302.001953125,0.34375,-1.79052734375,0.75439453125
652,-227.35595703125,20.44677734375,289.55078125,0.39697265625,-2.3984375,0.82666015625
653,-204.345703125,0.0,292.1142578125,0.3994140625,-2.99658203125,0.884765625
654,-128.60107421875,-41.1376953125,301.81884765625,0.478515625,-3.3984375,0.857421875
655,-35.09521484375,-79.58984375,308.9599609375,0.84521484375,-3.33251953125,0.76806640625
656,29.6630859375,-103.6376953125,298.15673828125,1.41162109375,-2.939453125,0.66259765625
657,42.3583984375,-106.99462890625,259.21630859375,1.9638671875,-2.4736328125,0.51220703125
658,25.2685546875,-89.599609375,203.30810546875,2.4921875,-2.06103515625,0.46240234375
659,-29.96826171875,-55.23681640625,138.97705078125,2.9599609375,-1.498046875,0.49072265625
660,-111.81640625,-29.23583984375,77.2705078125,3.0185546875,-1.375,0.97705078125
661,-145.99609375,-32.958984375,21.17919921875,2.7119140625,-1.818359375,1.18505859375
662,-109.43603515625,-64.94140625,-30.94482421875,2.38818359375,-2.2529296875,1.2880859375
663,-44.61669921875,-102.294921875,-73.91357421875,2.25390625,-2.36767578125,1.1025390625
664,-182.67822265625,151.91650390625,-377.9296875,0.43701171875,-3.03662109375,3.650390625
665,627.5634765625,28.25927734375,-190.185546875,0.0576171875,2.2060546875,-0.43505859375
666,-196.6552734375,-33.87451171875,-288.02490234375,-2.71728515625,-1.25390625,0.84814453125
667,31.79931640625,-86.12060546875,-354.98046875,-3.6630859375,2.11328125,-1.39501953125
668,-19.59228515625,-281.43310546875,-335.5712890625,0.96484375,-4.3271484375,0.04443359375
669,46.2646484375,-217.8955078125,-286.56005859375,1.01611328125,-3.2822265625,0.72314453125
670,74.40185546875,-147.76611328125,-185.1806640625,0.55859375,-1.50537109375,0.50390625
671,83.06884765625,-111.99951171875,-129.5166015625,0.01220703125,-1.23193359375,0.6201171875
672,67.56591796875,-99.67041015625,-121.64306640625,-0.23193359375,-0.90869140625,0.4873046875
673,44.43359375,-89.66064453125,-121.15478515625,-0.2138671875,-0.98291015625,0.38720703125
674,41.50390625,-72.75390625,-125.244140625,-0.197265625,-0.9541015625,0.197265625
675,30.029296875,-52.734375,-120.30029296875,-0.00927734375,-1.10205078125,0.36767578125
676,29.78515625,-52.001953125,-95.64208984375,-0.0947265625,-1.4501953125,-0.04248046875
677,22.03369140625,-100.4638671875,-38.818359375,-0.14306640625,-1.52783203125,-0.40576171875
678,14.95361328125,-15.380859375,-14.34326171875,0.2734375,-1.4580078125,1.21337890625
679,17.578125,0.6103515625,-28.99169921875,-0.4853515625,-1.05908203125,-0.23974609375
680,15.19775390625,-20.01953125,-19.34814453125,-0.2333984375,-1.06640625,0.2861328125
681,16.78466796875,-5.92041015625,-21.05712890625,-0.205078125,-0.970703125,0.4306640625
682,3.41796875,-10.6201171875,-17.76123046875,-0.1884765625,-0.9931640625,0.33349609375
683,-6.34765625,-8.544921875,-17.51708984375,-0.23095703125,-0.9423828125,0.41552734375
684,-21.97265625,-8.7890625,-18.24951171875,-0.24169921875,-0.99169921875,0.33203125
685,-32.71484375,-10.92529296875,-20.263671875,-0.2734375,-1.01220703125,0.27685546875
686,-36.0107421875,-12.51220703125,-21.728515625,-0.251953125,-1.05078125,0.21484375
687,-29.052734375,-15.19775390625,-20.99609375,-0.26513671875,-1.1064453125,0.1259765625
688,-19.71435546875,-17.76123046875,-19.22607421875,-0.234375,-1.0927734375,0.18310546875
689,-8.72802734375,-19.34814453125,-15.93017578125,-0.2060546875,-1.0859375,0.193359375
690,-2.5634765625,-20.6298828125,-13.5498046875,-0.21533203125,-1.05126953125,0.212890625
691,5.9814453125,-16.05224609375,-10.986328125,-0.15380859375,-1.091796875,0.2958984375
692,9.09423828125,-11.90185546875,-10.19287109375,-0.18994140625,-1.0078125,0.27685546875
693,6.103515625,-6.4697265625,-12.14599609375,-0.181640625,-1.015625,0.32275390625
694,0.6103515625,-3.2958984375,-13.61083984375,-0.1962890625,-0.99951171875,0.33154296875
695,-5.92041015625,-1.220703125,-14.09912109375,-0.19189453125,-1.03173828125,0.27880859375
696,-4.39453125,-0.18310546875,-14.46533203125,-0.17236328125,-1.04638671875,0.236328125
697,2.62451171875,2.86865234375,-15.0146484375,-0.20556640625,-1.0859375,0.2119140625
698,8.60595703125,5.9814453125,-17.02880859375,-0.22314453125,-1.0771484375,0.2333984375
699,19.4091796875,13.73291015625,-22.76611328125,-0.17822265625,-1.1044921875,0.28662109375
700,18.310546875,14.46533203125,-25.2685546875,-0.19482421875,-1.10595703125,0.2265625
701,23.8037109375,16.78466796875,-27.52685546875,-0.22265625,-1.18505859375,0.23046875
702,24.47509765625,19.34814453125,-31.73828125,-0.18603515625,-1.15283203125,0.2333984375
703,25.20751953125,19.59228515625,-35.400390625,-0.27734375,-1.24609375,0.32421875
704,41.80908203125,13.0615234375,-35.21728515625,-0.201171875,-1.01416015625,0.4267578125
705,21.42333984375,15.80810546875,-41.3818359375,-0.3369140625,-1.24169921875,0.3349609375
706,43.212890625,23.8037109375,-47.7294921875,-0.2451171875,-1.12109375,0.33984375
707,29.96826171875,18.798828125,-54.01611328125,-0.27880859375,-1.23876953125,0.3359375
708,37.90283203125,26.85546875,-62.744140625,-0.267578125,-1.279296875,0.341796875
709,35.09521484375,32.53173828125,-75.0732421875,-0.27978515625,-1.3017578125,0.36376953125
710,35.15625,40.6494140625,-84.1064453125,-0.3310546875,-1.27197265625,0.376953125
711,30.6396484375,46.93603515625,-98.5107421875,-0.4052734375,-1.28271484375,0.47314453125
712,16.9677734375,45.47119140625,-115.966796875,-0.43359375,-1.22900390625,0.38525390625
713,10.92529296875,41.259765625,-135.55908203125,-0.4736328125,-1.38330078125,0.3818359375
714,0.3662109375,31.3720703125,-160.2783203125,-0.4755859375,-1.3642578125,0.29638671875
715,2.44140625,25.45166015625,-187.68310546875,-0.52294921875,-1.43212890625,0.3330078125
716,-3.662109375,20.1416015625,-214.9658203125,-0.49755859375,-1.37158203125,0.359375
717,-16.7236328125,20.81298828125,-246.15478515625,-0.5517578125,-1.40087890625,0.34228515625
718,-18.5546875,19.6533203125,-280.21240234375,-0.65673828125,-1.45166015625,0.330078125
719,-32.1044921875,12.75634765625,-317.7490234375,-0.70263671875,-1.41943359375,0.40625
720,-38.4521484375,10.92529296875,-358.33740234375,-0.75048828125,-1.4716796875,0.20166015625
721,-46.2646484375,-3.11279296875,-392.7001953125,-0.86181640625,-1.7978515625,0.12255859375
722,-24.0478515625,-37.90283203125,-427.06298828125,-0.79541015625,-1.6796875,-0.03857421875
723,-14.09912109375,-37.4755859375,-466.1865234375,-0.775390625,-2.20849609375,0.76806640625
724,-36.19384765625,-53.22265625,-503.47900390625,-0.53564453125,-2.67041015625,0.39208984375
725,-15.44189453125,-53.03955078125,-512.14599609375,-0.14697265625,-2.7783203125,0.4638671875
726,-11.8408203125,-5.4931640625,-525.146484375,-0.14990234375,-1.98876953125,0.6875
727,-52.3681640625,-18.00537109375,-495.42236328125,-0.54443359375,-3.45849609375,-0.30517578125
728,18.9208984375,-6.40869140625,-486.26708984375,-1.34228515625,-2.86474609375,-0.2080078125
729,110.65673828125,46.81396484375,-473.93798828125,-1.869140625,-2.72216796875,-0.71435546875
730,-97.5341796875,156.25,-259.033203125,0.744140625,1.31787109375,-0.10107421875
731,-49.49951171875,167.236328125,45.59326171875,-1.34912109375,-1.5361328125,0.40625
732,41.93115234375,151.06201171875,146.8505859375,-2.05615234375,-1.95703125,-1.1123046875
733,59.5703125,139.7705078125,155.45654296875,-1.5390625,-1.4423828125,0.09033203125
734,50.84228515625,134.46044921875,159.423828125,-1.2900390625,-0.71435546875,-0.2958984375
735,30.8837890625,123.779296875,186.58447265625,-1.00244140625,-0.5625,-0.1533203125
736,13.671875,108.7646484375,236.9384765625,-0.8701171875,-0.61572265625,-0.19970703125
737,2.86865234375,92.59033203125,292.6025390625,-0.8505859375,-0.67578125,-0.18701171875
738,-2.9296875,82.09228515625,338.31787109375,-0.87255859375,-0.70458984375,-0.17041015625
739,-13.427734375,73.486328125,364.07470703125,-0.84765625,-0.6826171875,-0.15673828125
740,-31.73828125,69.2138671875,373.9013671875,-0.76904296875,-0.642578125,-0.11669921875
741,-52.55126953125,64.8193359375,375.54931640625,-0.72216796875,-0.65234375,-0.1201171875
742,-73.974609375,60.6689453125,371.39892578125,-0.68505859375,-0.68701171875,-0.0751953125
743,-94.54345703125,56.7626953125,367.0654296875,-0.6259765625,-0.779296875,-0.048828125
744,-110.4736328125,58.53271484375,365.78369140625,-0.42626953125,-0.95849609375,-0.03515625
745,-130.0048828125,63.96484375,367.7978515625,-0.29345703125,-1.00732421875,0.00927734375
746,-150.2685546875,73.54736328125,363.83056640625,-0.30126953125,-1.1640625,0.0478515625
747,-165.83251953125,83.31298828125,355.224609375,-0.26806640625,-1.36083984375,0.10693359375
748,-178.8330078125,92.95654296875,350.28076171875,-0.1748046875,-1.529296875,0.197265625
749,-182.373046875,96.00830078125,352.4169921875,-0.19580078125,-1.75830078125,0.251953125
750,-171.38671875,85.75439453125,354.3701171875,-0.30078125,-1.9345703125,0.3076171875
751,-152.52685546875,64.3310546875,354.91943359375,-0.42138671875,-2.0458984375,0.384765625
752,-129.0283203125,40.8935546875,351.62353515625,-0.38232421875,-2.12353515625,0.39208984375
753,-123.22998046875,20.81298828125,346.3134765625,-0.2646484375,-2.11474609375,0.41748046875
754,-125.91552734375,6.77490234375,342.71240234375,-0.12451171875,-2.27392578125,0.35107421875
755,-128.60107421875,14.0380859375,342.529296875,0.25244140625,-2.14208984375,0.5478515625
756,-195.49560546875,26.123046875,331.787109375,0.4326171875,-2.25244140625,0.65283203125
757,-166.1376953125,25.87890625,326.35498046875,0.458984375,-2.99658203125,0.6044921875
758,-115.478515625,5.55419921875,324.64599609375,0.55810546875,-3.2373046875,0.6435546875
759,-56.7626953125,-20.81298828125,315.3076171875,0.853515625,-3.10791015625,0.779296875
760,-38.75732421875,-47.9736328125,288.9404296875,1.25830078125,-2.6181640625,0.9033203125
761,-45.166015625,-67.626953125,246.27685546875,1.64013671875,-2.37548828125,0.8955078125
762,-50.29296875,-57.2509765625,187.6220703125,2.34716796875,-2.015625,0.62255859375
763,-101.74560546875,-35.46142578125,128.84521484375,3.056640625,-1.72900390625,0.93505859375
764,-127.25830078125,-23.3154296875,83.6181640625,3.14892578125,-2.0927734375,1.041015625
765,-86.181640625,-41.44287109375,34.85107421875,2.8271484375,-2.435546875,1.3154296875
766,-29.1748046875,-77.08740234375,-20.93505859375,2.5283203125,-2.171875,1.490234375
767,1.89208984375,-110.04638671875,-69.580078125,2.35205078125,-1.97021484375,1.43359375
768,-63.17138671875,78.857421875,-272.88818359375,-0.11669921875,-2.4296875,3.71728515625
769,705.810546875,25.08544921875,-175.47607421875,0.79833984375,2.75048828125,0.10302734375
770,-449.52392578125,-48.4619140625,-338.80615234375,-1.8564453125,-2.427734375,1.50048828125
771,-204.7119140625,-146.6064453125,-441.83349609375,-3.150390625,2.08154296875,-0.21142578125
772,78.30810546875,-263.85498046875,-344.05517578125,1.16796875,-4.59423828125,0.015625
773,-19.775390625,-156.92138671875,-351.37939453125,0.62939453125,-4.1689453125,1.34814453125
774,59.2041015625,-161.19384765625,-210.693359375,0.482421875,-1.796875,0.32861328125
775,105.95703125,-117.431640625,-164.9169921875,0.05712890625,-1.4091796875,0.62353515625
776,43.3349609375,-101.07421875,-155.3955078125,-0.3857421875,-1.09521484375,0.10107421875
777,44.98291015625,-101.13525390625,-146.6064453125,-0.09765625,-0.96630859375,0.27587890625
778,22.27783203125,-72.81494140625,-149.10888671875,0.0205078125,-0.986328125,0.41455078125
779,8.30078125,-55.11474609375,-135.8642578125,0.08447265625,-1.35107421875,0.14208984375
780,-13.916015625,-83.1298828125,-54.0771484375,0.064453125,-1.78564453125,-0.6494140625
781,20.20263671875,-19.53125,-26.85546875,-0.09033203125,-0.50146484375,1.45263671875
782,16.7236328125,-11.474609375,-24.84130859375,-0.33984375,-0.8974609375,-0.07568359375
783,21.6064453125,-9.58251953125,-12.14599609375,-0.08544921875,-1.23681640625,0.27490234375
784,18.310546875,5.2490234375,-8.23974609375,-0.16455078125,-1.05419921875,0.416015625
785,14.16015625,4.82177734375,-6.53076171875,-0.2353515625,-1.03466796875,0.23291015625
786,7.6904296875,5.859375,-6.9580078125,-0.24072265625,-0.98193359375,0.3466796875
787,-0.244140625,5.43212890625,-7.01904296875,-0.23681640625,-1.00341796875,0.30029296875
788,-10.25390625,3.0517578125,-9.21630859375,-0.240234375,-0.9658203125,0.3076171875
789,-18.73779296875,0.54931640625,-10.8642578125,-0.232421875,-0.9951171875,0.294921875
790,-24.7802734375,-1.953125,-11.65771484375,-0.2373046875,-1.01025390625,0.27392578125
791,-23.5595703125,-0.67138671875,-11.16943359375,-0.19677734375,-1.05322265625,0.2255859375
792,-16.54052734375,0.0,-10.07080078125,-0.234375,-1.08349609375,0.140625
793,-7.38525390625,-0.3662109375,-10.009765625,-0.248046875,-1.0751953125,0.13623046875
794,2.685546875,1.0986328125,-11.04736328125,-0.24853515625,-1.0810546875,0.16845703125
795,4.2724609375,-2.0751953125,-12.6953125,-0.25732421875,-1.02734375,0.189453125
796,3.35693359375,-7.87353515625,-14.95361328125,-0.2587890625,-1.033203125,0.18017578125
797,3.90625,-11.3525390625,-15.869140625,-0.24169921875,-1.03955078125,0.1748046875
798,1.8310546875,-12.939453125,-16.66259765625,-0.22021484375,-1.0322265625,0.24267578125
799,5.06591796875,-11.1083984375,-16.11328125,-0.1962890625,-1.0546875,0.22265625
800,5.55419921875,-8.6669921875,-16.357421875,-0.1953125,-1.03466796875,0.25439453125
801,4.39453125,-6.591796875,-16.9677734375,-0.2177734375,-1.07861328125,0.27490234375
802,7.080078125,-6.2255859375,-18.1884765625,-0.2265625,-1.08056640625,0.20068359375
803,6.103515625,-4.638671875,-19.4091796875,-0.193359375,-1.0625,0.23046875
804,11.3525390625,-5.79833984375,-19.1650390625,-0.20263671875,-1.06982421875,0.21630859375
805,13.85498046875,-1.52587890625,-20.3857421875,-0.17919921875,-1.11376953125,0.27587890625
806,22.216796875,8.36181640625,-24.47509765625,-0.23291015625,-1.27392578125,0.27294921875
807,28.99169921875,17.76123046875,-32.1044921875,-0.2529296875,-1.2880859375,0.1943359375
808,22.39990234375,19.34814453125,-34.60693359375,-0.1650390625,-1.0341796875,0.26416015625
809,13.73291015625,16.2353515625,-34.60693359375,-0.16845703125,-1.0068359375,0.291015625
810,9.21630859375,16.05224609375,-35.70556640625,-0.32177734375,-1.2001953125,0.3115234375
811,61.03515625,15.625,-46.20361328125,-0.2529296875,-1.28271484375,0.5947265625
812,13.18359375,15.31982421875,-57.6171875,-0.3388671875,-1.26220703125,0.28125
813,44.86083984375,17.333984375,-64.63623046875,-0.31591796875,-1.23779296875,0.42529296875
814,19.83642578125,17.822265625,-77.33154296875,-0.33203125,-1.22119140625,0.3818359375
815,22.76611328125,21.1181640625,-88.43994140625,-0.3857421875,-1.27783203125,0.43701171875
816,12.63427734375,24.84130859375,-104.98046875,-0.37890625,-1.314453125,0.39599609375
817,-3.90625,26.79443359375,-123.59619140625,-0.47265625,-1.3857421875,0.39794921875
818,5.18798828125,33.50830078125,-145.263671875,-0.43408203125,-1.3955078125,0.2919921875
819,-6.89697265625,34.5458984375,-171.93603515625,-0.46826171875,-1.37109375,0.2587890625
820,2.62451171875,34.85107421875,-197.998046875,-0.5078125,-1.44775390625,0.2626953125
821,-6.65283203125,36.68212890625,-228.21044921875,-0.45849609375,-1.3154296875,0.26953125
822,-11.71875,38.9404296875,-256.34765625,-0.482421875,-1.27685546875,0.32177734375
823,-27.587890625,39.24560546875,-289.61181640625,-0.55322265625,-1.3291015625,0.35498046875
824,-50.78125,36.62109375,-323.1201171875,-0.6162109375,-1.15234375,0.3544921875
825,-74.462890625,34.1796875,-362.60986328125,-0.7861328125,-1.33642578125,0.4951171875
826,-71.10595703125,18.37158203125,-394.47021484375,-0.7978515625,-1.37939453125,0.044921875
827,-80.13916015625,-11.53564453125,-424.74365234375,-0.59814453125,-1.92333984375,0.37109375
828,-28.38134765625,-32.8369140625,-453.91845703125,-0.771484375,-2.71142578125,0.70458984375
829,-73.91357421875,-57.55615234375,-488.6474609375,-0.44189453125,-3.013671875,0.099609375
830,13.671875,-65.61279296875,-490.6005859375,-0.0634765625,-2.91552734375,0.17138671875
831,32.1044921875,-32.04345703125,-478.8818359375,0.0322265625,-2.4599609375,0.41259765625
832,-33.63037109375,-25.08544921875,-473.32763671875,-0.78271484375,-2.26318359375,-0.09912109375
833,-0.244140625,-6.16455078125,-471.37451171875,-1.3837890625,-2.658203125,-0.130859375
834,36.2548828125,60.60791015625,-491.14990234375,-1.67333984375,-1.7568359375,-1.29248046875
835,-80.13916015625,168.02978515625,-192.5048828125,0.4052734375,-1.607421875,-0.662109375
836,-20.32470703125,161.1328125,72.265625,-1.3759765625,-2.453125,0.38916015625
837,106.201171875,144.59228515625,188.8427734375,-1.8671875,-2.13037109375,-1.2236328125
838,161.07177734375,145.32470703125,218.68896484375,-1.29052734375,-1.07080078125,-0.24267578125
839,130.2490234375,163.330078125,223.5107421875,-0.89990234375,-0.4453125,-0.3837890625
840,86.0595703125,178.16162109375,230.65185546875,-0.7431640625,-0.14990234375,-0.244140625
841,40.771484375,183.65478515625,249.93896484375,-0.685546875,-0.1884765625,-0.20947265625
842,13.00048828125,177.24609375,276.42822265625,-0.8271484375,-0.43310546875,-0.22998046875
843,7.99560546875,157.958984375,300.78125,-0.94091796875,-0.681640625,-0.23681640625
844,16.54052734375,131.89697265625,316.46728515625,-0.974609375,-0.70263671875,-0.16162109375
845,15.56396484375,108.7646484375,326.5380859375,-0.8720703125,-0.65283203125,-0.15673828125
846,-4.7607421875,90.2099609375,328.7353515625,-0.775390625,-0.5107421875,-0.0830078125
847,-44.0673828125,79.58984375,324.76806640625,-0.6630859375,-0.41650390625,-0.05419921875
848,-89.90478515625,73.05908203125,316.58935546875,-0.6005859375,-0.47119140625,-0.0400390625
849,-129.82177734375,72.20458984375,307.9833984375,-0.45166015625,-0.68994140625,-0.09521484375
850,-163.57421875,69.27490234375,304.6875,-0.4150390625,-0.88720703125,0.01416015625
851,-183.4716796875,67.9931640625,304.8095703125,-0.44482421875,-1.1689453125,0.0166015625
852,-191.162109375,66.650390625,306.70166015625,-0.41064453125,-1.4228515625,0.0654296875
853,-195.4345703125,65.91796875,312.1337890625,-0.31005859375,-1.55712890625,0.17041015625
854,-195.61767578125,62.5,319.9462890625,-0.28759765625,-1.68359375,0.2421875
855,-188.41552734375,49.31640625,325.62255859375,-0.35791015625,-1.86572265625,0.31396484375
856,-170.2880859375,28.38134765625,330.078125,-0.421875,-2.02978515625,0.384765625
857,-153.6865234375,3.41796875,335.51025390625,-0.40283203125,-2.08447265625,0.46240234375
858,-147.88818359375,-19.8974609375,345.21484375,-0.32666015625,-2.14794921875,0.49609375
859,-147.94921875,-31.982421875,357.91015625,-0.13037109375,-2.03466796875,0.6005859375
860,-201.2939453125,-22.88818359375,355.224609375,0.10205078125,-1.97216796875,0.74853515625
861,-201.904296875,-19.10400390625,349.365234375,0.171875,-2.8056640625,0.73388671875
862,-158.8134765625,-28.50341796875,343.68896484375,0.30810546875,-3.2978515625,0.7294921875
863,-90.8203125,-45.654296875,338.37890625,0.5537109375,-3.43603515625,0.79052734375
864,-34.66796875,-65.3076171875,333.984375,0.9228515625,-3.25927734375,0.74169921875
865,-6.34765625,-73.6083984375,318.9697265625,1.4697265625,-2.81005859375,0.70849609375
866,2.3193359375,-60.9130859375,275.146484375,1.97119140625,-2.4404296875,0.54248046875
867,-23.92578125,-17.63916015625,204.04052734375,2.7275390625,-1.71142578125,0.54833984375
868,-102.783203125,22.39990234375,120.1171875,3.13525390625,-1.3720703125,0.9609375
869,-129.94384765625,31.005859375,57.4951171875,2.94140625,-1.900390625,1.30224609375
870,-85.02197265625,0.0,20.8740234375,2.4892578125,-2.31982421875,1.7001953125
871,-0.18310546875,-49.37744140625,-13.916015625,2.205078125,-2.36962890625,1.77392578125
872,61.70654296875,-91.97998046875,-55.5419921875,2.31103515625,-2.03271484375,1.45751953125
873,250.244140625,-238.76953125,-261.41357421875,2.763671875,-6.96533203125,-0.83740234375
874,168.9453125,123.84033203125,-259.521484375,0.20556640625,3.14306640625,-0.248046875
875,-93.994140625,21.728515625,-304.38232421875,-1.76123046875,-2.55908203125,1.7900390625
876,-101.25732421875,-181.2744140625,-378.60107421875,-1.716796875,-1.40966796875,-2.458984375
877,106.5673828125,-283.69140625,-302.1240234375,0.7802734375,-2.17529296875,0.88232421875
878,86.60888671875,-205.2001953125,-290.1611328125,0.95458984375,-3.798828125,0.14111328125
879,46.5087890625,-175.47607421875,-194.7021484375,0.5087890625,-1.7607421875,0.61962890625
880,132.01904296875,-107.84912109375,-164.55078125,0.20849609375,-1.005859375,0.91455078125
881,38.26904296875,-90.51513671875,-174.9267578125,-0.349609375,-1.08544921875,0.2666015625
882,12.75634765625,-105.52978515625,-174.072265625,-0.34814453125,-0.77392578125,0.03466796875
883,-36.865234375,-122.55859375,-140.93017578125,0.52001953125,-1.7587890625,-0.009765625
884,-20.99609375,-6.591796875,-34.423828125,0.97314453125,-2.27880859375,1.0517578125
885,2.9296875,-18.5546875,-18.6767578125,-0.302734375,-1.349609375,-0.48486328125
886,3.11279296875,-9.27734375,-23.37646484375,-0.1845703125,-1.1181640625,0.4296875
887,6.9580078125,-2.685546875,-9.82666015625,-0.0751953125,-1.1162109375,0.30517578125
888,8.48388671875,-0.1220703125,-8.056640625,-0.25439453125,-1.04150390625,0.1796875
889,10.31494140625,1.46484375,-6.7138671875,-0.2255859375,-1.05419921875,0.22314453125
890,7.62939453125,-2.01416015625,-7.2021484375,-0.25048828125,-1.02392578125,0.25146484375
891,5.615234375,-1.64794921875,-4.638671875,-0.17578125,-1.029296875,0.3251953125
892,1.220703125,-0.06103515625,-4.7607421875,-0.2431640625,-0.98583984375,0.27490234375
893,-8.72802734375,-4.08935546875,-7.62939453125,-0.275390625,-0.98779296875,0.28369140625
894,-19.95849609375,-5.67626953125,-9.3994140625,-0.224609375,-1.00048828125,0.31689453125
895,-22.0947265625,-4.45556640625,-10.92529296875,-0.2353515625,-1.0361328125,0.24462890625
896,-15.80810546875,-5.31005859375,-10.498046875,-0.22021484375,-1.0771484375,0.15234375
897,-5.67626953125,-4.57763671875,-10.92529296875,-0.2236328125,-1.05078125,0.16259765625
898,-4.21142578125,-3.96728515625,-13.12255859375,-0.23291015625,-1.04931640625,0.21142578125
899,2.25830078125,-1.52587890625,-14.46533203125,-0.22900390625,-1.0712890625,0.19287109375
900,4.638671875,-2.685546875,-14.34326171875,-0.2197265625,-1.0400390625,0.22216796875
901,3.35693359375,-4.33349609375,-14.404296875,-0.1982421875,-1.0498046875,0.2626953125
902,1.3427734375,-6.89697265625,-14.58740234375,-0.21044921875,-1.02587890625,0.27099609375
903,2.3193359375,-6.103515625,-14.7705078125,-0.19970703125,-1.08203125,0.27099609375
904,4.8828125,-4.33349609375,-15.19775390625,-0.193359375,-1.04931640625,0.2080078125
905,9.1552734375,-3.35693359375,-14.34326171875,-0.166015625,-1.04443359375,0.24658203125
906,10.43701171875,-2.74658203125,-13.85498046875,-0.1796875,-1.0400390625,0.2353515625
907,11.65771484375,-1.5869140625,-13.36669921875,-0.205078125,-1.07470703125,0.2412109375
908,15.13671875,1.708984375,-15.93017578125,-0.20947265625,-1.13720703125,0.2509765625
909,21.728515625,6.4697265625,-21.91162109375,-0.2421875,-1.1279296875,0.26025390625
910,14.95361328125,8.85009765625,-24.71923828125,-0.1826171875,-1.09716796875,0.23681640625
911,17.39501953125,9.8876953125,-27.34375,-0.2216796875,-1.09130859375,0.27197265625
912,8.30078125,11.5966796875,-28.80859375,-0.193359375,-1.0458984375,0.3076171875
913,10.8642578125,11.77978515625,-29.11376953125,-0.201171875,-1.107421875,0.3125
914,28.62548828125,7.62939453125,-33.69140625,-0.22607421875,-1.11572265625,0.58251953125
915,23.62060546875,10.6201171875,-38.14697265625,-0.24609375,-1.10888671875,0.27001953125
916,30.029296875,16.78466796875,-44.37255859375,-0.27490234375,-1.1494140625,0.3154296875
917,26.611328125,14.34326171875,-48.15673828125,-0.26318359375,-1.19873046875,0.36376953125
918,25.20751953125,18.1884765625,-56.94580078125,-0.2587890625,-1.18017578125,0.36474609375
919,22.216796875,21.240234375,-66.2841796875,-0.2587890625,-1.22802734375,0.3505859375
920,20.32470703125,25.2685546875,-75.50048828125,-0.28173828125,-1.2197265625,0.3603515625
921,22.216796875,29.1748046875,-86.24267578125,-0.3046875,-1.23974609375,0.36669921875
922,18.4326171875,36.2548828125,-99.30419921875,-0.33056640625,-1.33349609375,0.29638671875
923,20.01953125,43.15185546875,-114.80712890625,-0.35205078125,-1.35888671875,0.26220703125
924,17.9443359375,51.26953125,-136.41357421875,-0.39208984375,-1.4130859375,0.24609375
925,20.44677734375,52.001953125,-160.15625,-0.43701171875,-1.4677734375,0.2548828125
926,23.681640625,52.3681640625,-187.1337890625,-0.4384765625,-1.3505859375,0.216796875
927,11.29150390625,45.71533203125,-212.890625,-0.482421875,-1.357421875,0.34912109375
928,6.4697265625,39.4287109375,-242.1875,-0.5771484375,-1.3515625,0.3447265625
929,-4.08935546875,30.94482421875,-273.01025390625,-0.7021484375,-1.36181640625,0.38916015625
930,-20.44677734375,24.169921875,-310.11962890625,-0.72509765625,-1.38916015625,0.4892578125
931,-30.517578125,8.6669921875,-343.3837890625,-0.755859375,-1.5263671875,0.25341796875
932,-32.958984375,-5.79833984375,-378.35693359375,-0.818359375,-1.56494140625,0.19580078125
933,-57.0068359375,-28.076171875,-421.08154296875,-0.52880859375,-1.70849609375,0.51708984375
934,-28.74755859375,-52.8564453125,-444.091796875,-0.775390625,-2.58544921875,0.3408203125
935,-25.2685546875,-77.7587890625,-468.505859375,-0.59130859375,-2.62939453125,0.2421875
936,-1.03759765625,-72.08251953125,-479.4921875,-0.2578125,-2.51611328125,0.28515625
937,-9.09423828125,-15.19775390625,-492.98095703125,0.181640625,-1.828125,0.6689453125
938,-59.4482421875,-2.25830078125,-484.92431640625,-0.58642578125,-2.658203125,-0.03466796875
939,-43.3349609375,21.78955078125,-494.140625,-0.9287109375,-2.35302734375,-0.052734375
940,17.7001953125,85.51025390625,-485.2294921875,-1.39453125,-2.17041015625,-0.44580078125
941,-144.95849609375,150.5126953125,-219.54345703125,1.25830078125,1.615234375,0.138671875
942,19.6533203125,148.0712890625,84.53369140625,-1.50048828125,-2.36962890625,0.11376953125
943,73.1201171875,117.7978515625,189.39208984375,-1.8310546875,-1.87353515625,-0.9833984375
944,81.11572265625,108.94775390625,220.5810546875,-1.32275390625,-0.83544921875,0.04736328125
945,51.20849609375,123.10791015625,220.15380859375,-0.94189453125,-0.16845703125,-0.25146484375
946,-9.82666015625,132.01904296875,222.96142578125,-0.72314453125,-0.07763671875,-0.04296875
947,-50.78125,141.11328125,240.41748046875,-0.63916015625,-0.26220703125,-0.07666015625
948,-66.2841796875,139.09912109375,278.13720703125,-0.712890625,-0.50341796875,-0.06884765625
949,-59.87548828125,129.638671875,319.88525390625,-0.83447265625,-0.7138671875,0.001953125
950,-43.39599609375,118.5302734375,342.83447265625,-0.90380859375,-0.7578125,0.09326171875
951,-38.02490234375,111.81640625,345.39794921875,-0.85498046875,-0.64990234375,0.1728515625
952,-50.78125,109.2529296875,336.42578125,-0.71826171875,-0.5283203125,0.216796875
953,-71.22802734375,115.53955078125,317.9931640625,-0.5576171875,-0.4951171875,0.25732421875
954,-102.84423828125,125.0,296.44775390625,-0.47900390625,-0.53076171875,0.353515625
955,-136.65771484375,138.0615234375,281.982421875,-0.40771484375,-0.70458984375,0.4541015625
956,-162.59765625,146.8505859375,280.2734375,-0.39794921875,-1.02392578125,0.49072265625
957,-166.259765625,142.51708984375,287.04833984375,-0.4921875,-1.41015625,0.57958984375
958,-151.91650390625,130.92041015625,293.5791015625,-0.52783203125,-1.63330078125,0.728515625
959,-138.73291015625,113.09814453125,295.2880859375,-0.41162109375,-1.63330078125,0.8603515625
960,-136.16943359375,91.064453125,292.6025390625,-0.2705078125,-1.62158203125,0.951171875
961,-134.58251953125,62.8662109375,290.95458984375,-0.24755859375,-1.677734375,0.9638671875
962,-121.88720703125,32.65380859375,289.24560546875,-0.2744140625,-1.76953125,0.96142578125
963,-106.8115234375,2.197265625,288.02490234375,-0.24755859375,-1.8203125,0.85546875
964,-96.37451171875,-22.0947265625,287.9638671875,-0.18115234375,-1.82080078125,0.75830078125
965,-92.28515625,-26.85546875,287.78076171875,0.046875,-1.69091796875,0.7724609375
966,-130.18798828125,-11.474609375,275.87890625,0.2900390625,-1.35791015625,0.8642578125
967,-152.52685546875,-7.32421875,264.34326171875,0.2431640625,-1.90478515625,0.8759765625
968,-130.31005859375,-26.42822265625,259.765625,0.1201171875,-2.36669921875,0.85400390625
969,-73.2421875,-59.5703125,262.14599609375,0.20947265625,-2.59423828125,0.8994140625
970,-25.20751953125,-93.505859375,266.54052734375,0.47216796875,-2.5224609375,0.83349609375
971,1.46484375,-122.98583984375,266.7236328125,0.82373046875,-2.427734375,0.65087890625
972,15.2587890625,-139.5263671875,249.0234375,1.22998046875,-2.3037109375,0.4541015625
973,22.88818359375,-141.05224609375,209.53369140625,1.71337890625,-2.15234375,0.30126953125
974,23.98681640625,-138.427734375,158.203125,2.10302734375,-1.99365234375,0.0107421875
975,8.544921875,-125.91552734375,100.830078125,2.353515625,-1.5888671875,0.22705078125
976,-35.58349609375,-111.81640625,50.048828125,2.36572265625,-1.212890625,0.46923828125
977,-86.12060546875,-102.60009765625,15.07568359375,2.21826171875,-1.08056640625,0.71630859375
978,-107.666015625,-109.06982421875,-11.71875,1.88427734375,-1.412109375,0.8193359375
979,-83.3740234375,-124.57275390625,-39.48974609375,1.58642578125,-1.783203125,0.70263671875
980,-43.8232421875,-134.33837890625,-63.8427734375,1.64892578125,-1.7265625,0.5283203125
981,-257.080078125,-66.650390625,-248.1689453125,0.263671875,-0.0625,2.2998046875
982,-21.17919921875,122.0703125,-243.83544921875,-0.15966796875,1.93798828125,0.52001953125
983,-26.91650390625,35.21728515625,-213.623046875,-1.7578125,-1.16552734375,-0.70703125
984,14.34326171875,-26.30615234375,-313.17138671875,-1.29931640625,-1.322265625,-1.0634765625
985,40.771484375,-229.55322265625,-323.30322265625,-0.298828125,-4.06201171875,-0.49365234375
986,25.87890625,-183.53271484375,-296.630859375,0.32568359375,-0.60302734375,0.806640625
987,202.392578125,-175.10986328125,-208.984375,0.37548828125,-1.6826171875,-0.0830078125
988,16.90673828125,-121.52099609375,-179.3212890625,0.7509765625,-1.63671875,0.9677734375
989,-74.70703125,-34.3017578125,-53.77197265625,2.236328125,-1.458984375,0.6611328125
990,39.48974609375,-28.13720703125,-27.4658203125,0.47021484375,-0.45458984375,0.80126953125
991,23.37646484375,-24.23095703125,-24.5361328125,-0.0537109375,-0.7978515625,0.63134765625
992,15.31982421875,-22.94921875,-12.939453125,-0.07080078125,-1.16064453125,0.22998046875
993,-2.5634765625,-18.9208984375,-11.65771484375,-0.1201171875,-1.04345703125,0.400390625
994,-5.615234375,-15.80810546875,-5.92041015625,-0.1826171875,-1.04443359375,0.38232421875
995,-3.173828125,-11.53564453125,-3.0517578125,-0.171875,-1.0693359375,0.28125
996,3.5400390625,-5.92041015625,-0.06103515625,-0.19580078125,-1.05810546875,0.2822265625
997,6.89697265625,-1.28173828125,-1.89208984375,-0.22412109375,-1.02880859375,0.2958984375
998,2.99072265625,-0.06103515625,-5.0048828125,-0.244140625,-1.015625,0.2998046875
999,3.72314453125,3.5400390625,-6.2255859375,-0.21875,-1.0302734375,0.3046875
1000,1.03759765625,7.2021484375,-6.4697265625,-0.21875,-1.01513671875,0.33349609375
1001,-3.90625,8.97216796875,-6.53076171875,-0.20751953125,-0.994140625,0.35791015625
1002,-8.544921875,11.90185546875,-5.859375,-0.2001953125,-0.98876953125,0.35986328125
1003,-9.82666015625,14.7705078125,-6.65283203125,-0.21826171875,-1.001953125,0.294921875
1004,-12.6953125,12.51220703125,-8.60595703125,-0.26123046875,-1.021484375,0.27783203125
1005,-12.0849609375,6.9580078125,-9.6435546875,-0.26513671875,-1.04248046875,0.2255859375
1006,-9.033203125,-0.91552734375,-9.765625,-0.27392578125,-1.08837890625,0.15576171875
1007,-2.3193359375,-3.7841796875,-9.765625,-0.22119140625,-1.08642578125,0.21533203125
1008,8.11767578125,-1.8310546875,-9.765625,-0.22412109375,-1.0966796875,0.17626953125
1009,13.73291015625,0.1220703125,-10.8642578125,-0.21630859375,-1.05029296875,0.2490234375
1010,19.95849609375,1.3427734375,-13.0615234375,-0.2626953125,-1.1376953125,0.25439453125
1011,22.94921875,-1.64794921875,-13.7939453125,-0.22998046875,-1.03076171875,0.2529296875
1012,21.8505859375,-2.8076171875,-12.939453125,-0.20654296875,-0.9658203125,0.30224609375
1013,14.5263671875,-0.42724609375,-15.7470703125,-0.20849609375,-1.03515625,0.33447265625
1014,20.5078125,5.79833984375,-22.64404296875,-0.2470703125,-1.25830078125,0.365234375
1015,22.0947265625,14.16015625,-28.4423828125,-0.15380859375,-1.0478515625,0.27978515625
1016,23.193359375,19.71435546875,-31.6162109375,-0.20263671875,-1.1279296875,0.30810546875
1017,23.193359375,19.71435546875,-33.87451171875,-0.16455078125,-1.130859375,0.216796875
1018,3.662109375,22.39990234375,-33.02001953125,-0.22802734375,-1.05517578125,0.23095703125
1019,27.7099609375,17.88330078125,-40.10009765625,-0.4296875,-1.3203125,0.8603515625
1020,26.123046875,18.85986328125,-42.1142578125,-0.2109375,-0.66748046875,0.33447265625
1021,15.2587890625,14.34326171875,-42.236328125,-0.26220703125,-1.01025390625,0.59521484375
1022,-2.9296875,5.615234375,-42.66357421875,-0.2412109375,-0.81005859375,0.5439453125
1023,-20.8740234375,-4.0283203125,-43.27392578125,-0.2265625,-0.9443359375,0.5107421875
1024,-34.912109375,-8.60595703125,-47.36328125,-0.2294921875,-1.068359375,0.4013671875
1025,-34.66796875,-12.39013671875,-52.06298828125,-0.22216796875,-1.1435546875,0.33203125
1026,-33.75244140625,-9.521484375,-59.5703125,-0.2421875,-1.234375,0.306640625
1027,-24.71923828125,0.732421875,-72.8759765625,-0.2578125,-1.31298828125,0.216796875
1028,-21.240234375,10.498046875,-86.24267578125,-0.28515625,-1.33740234375,0.27587890625
1029,-20.56884765625,23.49853515625,-105.52978515625,-0.353515625,-1.38671875,0.2919921875
1030,-18.310546875,32.16552734375,-124.20654296875,-0.43603515625,-1.263671875,0.4140625
1031,-28.74755859375,35.64453125,-148.49853515625,-0.3984375,-1.2734375,0.4755859375
1032,-46.875,39.306640625,-172.9736328125,-0.45263671875,-1.18603515625,0.5400390625
1033,-65.61279296875,39.6728515625,-202.81982421875,-0.47900390625,-1.21533203125,0.4814453125
1034,-98.14453125,34.7900390625,-233.154296875,-0.58154296875,-1.3271484375,0.5107421875
1035,-104.79736328125,24.658203125,-266.11328125,-0.765625,-1.40087890625,0.39013671875
1036,-125.54931640625,23.74267578125,-313.90380859375,-0.923828125,-1.4501953125,0.57275390625
1037,-156.73828125,20.3857421875,-370.42236328125,-1.11083984375,-1.392578125,0.6201171875
1038,-172.54638671875,11.90185546875,-425.4150390625,-1.076171875,-1.765625,0.626953125
1039,-169.677734375,-53.03955078125,-476.01318359375,-0.98681640625,-3.18994140625,0.296875
1040,-60.36376953125,-109.9853515625,-489.990234375,-0.541015625,-3.7177734375,0.0673828125
1041,121.52099609375,-149.35302734375,-435.24169921875,-0.25537109375,-4.3046875,0.4609375
1042,168.45703125,-166.50390625,-401.06201171875,-0.24658203125,-2.25048828125,-0.3408203125
1043,181.396484375,-150.5126953125,-377.38037109375,-1.00341796875,-1.90185546875,-0.513671875
1044,147.94921875,-95.703125,-359.86328125,-1.287109375,-1.2939453125,-0.75341796875
1045,-53.03955078125,108.88671875,-208.19091796875,1.02490234375,-0.513671875,-0.52197265625
1046,1.8310546875,127.38037109375,6.4697265625,-1.84033203125,-1.62939453125,0.1416015625
1047,194.3359375,126.15966796875,95.947265625,-1.96484375,-2.0830078125,-0.892578125
1048,287.9638671875,81.54296875,142.2119140625,-1.95166015625,-1.140625,-0.5078125
1049,319.4580078125,36.68212890625,189.453125,-1.619140625,-0.470703125,-0.38720703125
1050,277.03857421875,-0.18310546875,224.4873046875,-1.27490234375,0.0380859375,-0.4697265625
1051,210.75439453125,-29.11376953125,257.8125,-1.0771484375,0.01025390625,-0.52197265625
1052,177.18505859375,-46.875,292.236328125,-0.84228515625,-0.46044921875,-0.71533203125
1053,167.8466796875,-53.5888671875,328.67431640625,-0.56982421875,-0.697265625,-0.80517578125
1054,173.33984375,-47.36328125,358.2763671875,-0.33203125,-0.85205078125,-0.8642578125
1055,180.5419921875,-31.982421875,369.81201171875,-0.1201171875,-0.85107421875,-0.861328125
1056,170.47119140625,-5.37109375,364.44091796875,0.11328125,-0.7373046875,-0.82861328125
1057,135.68115234375,21.91162109375,351.1962890625,0.2275390625,-0.63720703125,-0.75341796875
1058,89.599609375,39.12353515625,337.7685546875,0.14013671875,-0.83203125,-0.70068359375
1059,65.5517578125,41.56494140625,332.8857421875,-0.0068359375,-1.17919921875,-0.7314453125
1060,56.0302734375,28.25927734375,338.7451171875,-0.0986328125,-1.3818359375,-0.71044921875
1061,39.12353515625,3.84521484375,348.9990234375,-0.13671875,-1.322265625,-0.5458984375
1062,-4.39453125,-31.79931640625,361.81640625,-0.10546875,-1.2880859375,-0.38818359375
1063,-49.13330078125,-78.0029296875,374.51171875,-0.1689453125,-1.4306640625,-0.361328125
1064,-77.81982421875,-127.0751953125,380.79833984375,-0.166015625,-1.703125,-0.44677734375
1065,-93.81103515625,-171.08154296875,380.37109375,0.0537109375,-1.79833984375,-0.56005859375
1066,-122.802734375,-195.3125,371.88720703125,0.30419921875,-1.787109375,-0.63525390625
1067,-154.4189453125,-205.01708984375,356.75048828125,0.46142578125,-1.85205078125,-0.70458984375
1068,-171.44775390625,-208.92333984375,339.90478515625,0.482421875,-2.04638671875,-0.75830078125
1069,-171.2646484375,-213.37890625,324.76806640625,0.443359375,-2.19287109375,-0.7490234375
1070,-164.306640625,-217.95654296875,315.12451171875,0.39306640625,-2.28125,-0.6708984375
1071,-156.43310546875,-222.96142578125,314.02587890625,0.3564453125,-2.38037109375,-0.64306640625
1072,-149.10888671875,-225.89111328125,317.7490234375,0.36083984375,-2.38232421875,-0.61376953125
1073,-148.681640625,-228.82080078125,314.3310546875,0.40234375,-2.23095703125,-0.58984375
1074,-152.52685546875,-231.201171875,298.4619140625,0.44970703125,-2.24267578125,-0.58935546875
1075,-154.96826171875,-232.91015625,270.56884765625,0.564453125,-2.234375,-0.6220703125
1076,-159.72900390625,-229.06494140625,239.990234375,0.783203125,-2.1943359375,-0.6435546875
1077,-184.63134765625,-217.22412109375,212.0361328125,1.0,-1.90771484375,-0.40966796875
1078,-206.48193359375,-209.65576171875,188.1103515625,1.08544921875,-2.09521484375,-0.4267578125
1079,-204.28466796875,-208.740234375,168.27392578125,1.10986328125,-2.205078125,-0.31005859375
1080,-192.56591796875,-210.99853515625,145.32470703125,1.1953125,-2.052734375,-0.169921875
1081,-198.79150390625,-210.02197265625,116.27197265625,1.3603515625,-1.71484375,0.05859375
1082,-198.1201171875,-178.5888671875,76.904296875,0.51123046875,-1.18896484375,0.7900390625
1083,-122.86376953125,-195.98388671875,-1.52587890625,1.31005859375,-0.71240234375,-0.40185546875
1084,-255.31005859375,-197.57080078125,-60.1806640625,2.158203125,-2.7197265625,0.5322265625
1085,-257.01904296875,-173.27880859375,-134.58251953125,2.1376953125,-1.18212890625,0.1416015625
1086,-226.13525390625,-70.556640625,-210.14404296875,1.10107421875,-1.93359375,0.80517578125
1087,-140.80810546875,-78.857421875,-238.76953125,-0.169921875,-2.27783203125,0.42333984375
1088,-41.32080078125,-127.38037109375,-197.81494140625,-0.06103515625,-1.1708984375,0.6630859375
1089,114.990234375,-78.43017578125,-178.52783203125,0.55859375,-0.958984375,0.892578125
1090,91.61376953125,11.962890625,-164.24560546875,0.28125,-1.76123046875,0.7529296875
1091,38.14697265625,-16.4794921875,-136.77978515625,-0.3408203125,-0.98291015625,-0.16162109375
1092,39.9169921875,-48.03466796875,-139.70947265625,0.19384765625,-1.41552734375,0.31201171875
1093,12.0849609375,-106.689453125,-79.89501953125,0.72998046875,-0.328125,-0.501953125
1094,38.818359375,-40.34423828125,-66.650390625,0.3681640625,-1.31103515625,0.939453125
1095,2.62451171875,-27.2216796875,-71.59423828125,-0.478515625,-1.04052734375,-0.005859375
1096,16.9677734375,-49.01123046875,-39.55078125,-0.1533203125,-1.60205078125,-0.080078125
1097,-2.8076171875,-36.19384765625,-36.19384765625,0.0693359375,-0.89892578125,0.6259765625
1098,17.7001953125,-30.57861328125,-22.27783203125,-0.18994140625,-1.09423828125,0.1279296875
1099,21.30126953125,-32.04345703125,-11.41357421875,-0.13525390625,-1.09619140625,0.3486328125
1100,22.5830078125,-27.9541015625,-6.591796875,-0.1923828125,-1.01953125,0.31298828125
1101,23.49853515625,-27.64892578125,-2.8076171875,-0.1806640625,-1.00390625,0.41064453125
1102,21.91162109375,-26.611328125,-1.77001953125,-0.2080078125,-0.98974609375,0.36083984375
1103,15.07568359375,-29.23583984375,-1.89208984375,-0.21337890625,-0.98681640625,0.38671875
1104,7.99560546875,-23.13232421875,-3.2958984375,-0.20849609375,-1.001953125,0.3994140625
1105,0.8544921875,-15.380859375,-6.2255859375,-0.22119140625,-1.01220703125,0.37158203125
1106,-3.2958984375,-8.60595703125,-8.48388671875,-0.20263671875,-1.0078125,0.36962890625
1107,-9.3994140625,-3.96728515625,-10.92529296875,-0.22900390625,-0.98486328125,0.3896484375
1108,-13.48876953125,0.06103515625,-13.00048828125,-0.22509765625,-1.0146484375,0.37939453125
1109,-18.6767578125,0.06103515625,-14.7705078125,-0.2080078125,-1.01123046875,0.34716796875
1110,-21.54541015625,-2.38037109375,-15.44189453125,-0.21923828125,-1.03076171875,0.3681640625
1111,-16.9677734375,-3.90625,-17.578125,-0.21484375,-1.13330078125,0.28466796875
1112,-19.6533203125,-4.0283203125,-18.5546875,-0.23681640625,-1.05224609375,0.333984375
1113,-14.892578125,-1.8310546875,-23.01025390625,-0.322265625,-1.19287109375,0.4228515625
1114,6.103515625,-6.16455078125,-24.23095703125,-0.33447265625,-1.17138671875,0.51025390625
1115,-12.3291015625,-10.498046875,-26.55029296875,-0.17138671875,-0.6162109375,0.453125
1116,-7.2021484375,-7.8125,-33.203125,-0.3212890625,-1.3779296875,0.26806640625
1117,-21.728515625,-8.1787109375,-37.41455078125,-0.23095703125,-0.9736328125,0.38623046875
1118,-15.2587890625,-7.75146484375,-41.259765625,-0.2451171875,-1.13671875,0.36669921875
1119,-21.1181640625,-7.568359375,-44.61669921875,-0.23046875,-1.046875,0.32763671875
1120,-26.30615234375,-8.7890625,-45.654296875,-0.185546875,-0.96923828125,0.42822265625
1121,-37.17041015625,-10.3759765625,-47.18017578125,-0.19580078125,-0.9677734375,0.44580078125
1122,-39.73388671875,-12.8173828125,-46.56982421875,-0.15234375,-0.9599609375,0.33935546875
1123,-45.71533203125,-21.17919921875,-44.43359375,-0.1923828125,-0.97900390625,0.353515625
1124,-45.95947265625,-26.0009765625,-43.15185546875,-0.17578125,-1.0087890625,0.3232421875
1125,-43.64013671875,-26.4892578125,-43.0908203125,-0.115234375,-1.04248046875,0.16845703125
1126,-40.83251953125,-20.6298828125,-46.142578125,-0.13330078125,-1.13671875,0.1826171875
1127,-36.4990234375,-17.27294921875,-50.048828125,-0.17529296875,-1.16064453125,0.2041015625
1128,-30.1513671875,-13.73291015625,-52.91748046875,-0.11279296875,-1.12451171875,0.15234375
1129,-27.28271484375,-9.6435546875,-56.640625,-0.12109375,-1.158203125,0.216796875
1130,-18.49365234375,-5.67626953125,-62.68310546875,-0.15283203125,-1.22314453125,0.16064453125
1131,-16.17431640625,-1.0986328125,-69.03076171875,-0.1474609375,-1.18994140625,0.20556640625
1132,-16.29638671875,-1.77001953125,-77.392578125,-0.2412109375,-1.21923828125,0.314453125
1133,-15.93017578125,-8.7890625,-86.5478515625,-0.28515625,-1.232421875,0.32373046875
1134,-14.6484375,-10.25390625,-97.2900390625,-0.21923828125,-1.22021484375,0.2392578125
1135,-15.07568359375,-2.3193359375,-110.41259765625,-0.185546875,-1.22705078125,0.27099609375
1136,-16.6015625,3.662109375,-127.50244140625,-0.23291015625,-1.31787109375,0.28662109375
1137,-22.5830078125,-1.15966796875,-143.5546875,-0.34912109375,-1.3544921875,0.32275390625
1138,-14.892578125,2.685546875,-163.57421875,-0.28125,-1.43896484375,0.2578125
1139,-25.634765625,19.1650390625,-191.83349609375,-0.31201171875,-1.3974609375,0.2421875
1140,-41.56494140625,29.60205078125,-225.64697265625,-0.5400390625,-1.498046875,0.279296875
1141,-46.0205078125,21.17919921875,-263.48876953125,-0.79736328125,-1.96044921875,0.2646484375
1142,-26.0009765625,5.7373046875,-303.7109375,-0.75244140625,-2.1533203125,0.32275390625
1143,-74.0966796875,18.9208984375,-356.50634765625,-0.732421875,-1.84033203125,1.27783203125
1144,43.64013671875,-56.70166015625,-377.50244140625,-1.3701171875,-3.9169921875,-0.27001953125
1145,194.4580078125,-160.21728515625,-372.314453125,-1.20458984375,-3.23095703125,-0.08056640625
1146,289.61181640625,-228.271484375,-348.20556640625,-1.09326171875,-2.7578125,0.01611328125
1147,356.0791015625,-274.90234375,-323.73046875,-0.88916015625,-2.13818359375,0.35107421875
1148,359.2529296875,-283.935546875,-317.138671875,-0.6494140625,-2.16357421875,-0.04541015625
1149,355.1025390625,-297.42431640625,-290.283203125,-1.07958984375,-1.63134765625,-0.46630859375
1150,452.81982421875,-300.23193359375,-201.72119140625,-3.3466796875,-0.08251953125,-0.50146484375
1151,132.38525390625,-350.40283203125,-3.60107421875,-1.17138671875,-1.63623046875,-1.4931640625
1152,236.2060546875,-312.56103515625,44.677734375,-0.623046875,-0.53857421875,0.4296875
1153,245.17822265625,-236.9384765625,72.265625,-0.16796875,-0.912109375,-1.29345703125
1154,261.5966796875,-154.72412109375,102.84423828125,0.0009765625,-1.13916015625,-0.783203125
1155,276.3671875,-87.09716796875,155.70068359375,-0.13623046875,-1.0517578125,-0.75439453125
1156,285.0341796875,-43.0908203125,221.74072265625,-0.345703125,-1.09521484375,-0.75341796875
1157,301.26953125,-24.658203125,277.64892578125,-0.521484375,-1.21044921875,-0.76806640625
1158,315.24658203125,-20.3857421875,316.10107421875,-0.59912109375,-1.22119140625,-0.76904296875
1159,309.326171875,-32.89794921875,337.40234375,-0.6552734375,-1.2001953125,-0.75146484375
1160,299.98779296875,-47.8515625,347.47314453125,-0.59228515625,-1.27978515625,-0.794921875
1161,282.89794921875,-67.3828125,357.7880859375,-0.4013671875,-1.33544921875,-0.9404296875
1162,262.14599609375,-82.6416015625,362.85400390625,-0.18896484375,-1.42529296875,-1.0712890625
1163,230.712890625,-90.88134765625,360.3515625,0.01123046875,-1.41357421875,-1.18359375
1164,181.45751953125,-92.59033203125,349.609375,0.060546875,-1.29638671875,-1.17626953125
1165,114.56298828125,-95.15380859375,332.275390625,0.10595703125,-1.181640625,-1.17138671875
1166,49.13330078125,-100.89111328125,316.5283203125,0.13818359375,-1.32958984375,-1.21484375
1167,3.84521484375,-115.17333984375,304.99267578125,0.13427734375,-1.54052734375,-1.203125
1168,-27.64892578125,-135.92529296875,293.64013671875,0.130859375,-1.58740234375,-1.115234375
1169,-52.8564453125,-154.9072265625,286.865234375,0.2197265625,-1.736328125,-1.11572265625
1170,-64.0869140625,-167.3583984375,289.24560546875,0.36572265625,-1.8271484375,-1.1064453125
1171,-70.86181640625,-172.4853515625,298.15673828125,0.49267578125,-1.935546875,-1.14892578125
1172,-64.3310546875,-175.96435546875,304.443359375,0.51953125,-1.98583984375,-1.11376953125
1173,-61.58447265625,-174.98779296875,300.9033203125,0.5166015625,-1.79443359375,-1.01953125
1174,-74.951171875,-165.283203125,288.57421875,0.49560546875,-1.59130859375,-0.935546875
1175,-98.08349609375,-150.7568359375,271.8505859375,0.44873046875,-1.4697265625,-0.87060546875
1176,-122.37548828125,-131.40869140625,253.7841796875,0.38623046875,-1.44189453125,-0.791015625
1177,-143.5546875,-111.99951171875,237.12158203125,0.33544921875,-1.4755859375,-0.70849609375
1178,-153.1982421875,-96.49658203125,225.15869140625,0.29833984375,-1.62548828125,-0.6494140625
1179,-148.74267578125,-86.181640625,222.65625,0.29443359375,-1.78271484375,-0.5732421875
1180,-137.0849609375,-80.9326171875,225.09765625,0.33154296875,-1.86669921875,-0.447265625
1181,-123.6572265625,-77.880859375,231.87255859375,0.404296875,-1.89013671875,-0.333984375
1182,-109.375,-76.23291015625,237.4267578125,0.46826171875,-1.90087890625,-0.28173828125
1183,-96.61865234375,-72.998046875,236.14501953125,0.53515625,-1.8349609375,-0.232421875
1184,-91.24755859375,-59.2041015625,226.6845703125,0.7119140625,-1.45849609375,-0.05078125
1185,-133.23974609375,-37.53662109375,195.80078125,0.79736328125,-1.451171875,0.080078125
1186,-134.70458984375,-24.59716796875,170.47119140625,0.79443359375,-1.63623046875,0.1044921875
1187,-124.20654296875,-19.287109375,151.06201171875,0.7705078125,-1.7431640625,0.2158203125
1188,-108.5205078125,-17.822265625,134.521484375,0.85205078125,-1.68505859375,0.34130859375
1189,-99.18212890625,-15.13671875,117.73681640625,0.9931640625,-1.60595703125,0.37109375
1190,-91.24755859375,-9.6435546875,100.9521484375,1.13720703125,-1.55322265625,0.34619140625
1191,-83.984375,-4.45556640625,85.9375,1.1982421875,-1.60107421875,0.31396484375
1192,-68.115234375,-2.62451171875,72.08251953125,1.18310546875,-1.67529296875,0.23974609375
1193,-61.21826171875,-4.33349609375,60.60791015625,1.216796875,-1.50732421875,0.2666015625
1194,-70.25146484375,-4.33349609375,49.9267578125,1.2177734375,-1.34912109375,0.31787109375
1195,-85.75439453125,-6.34765625,33.69140625,1.1416015625,-1.27001953125,0.3388671875
1196,-102.35595703125,-12.0849609375,12.39013671875,1.080078125,-1.2412109375,0.41259765625
1197,-114.07470703125,-18.798828125,-5.79833984375,0.99658203125,-1.2744140625,0.4404296875
1198,-110.16845703125,-29.47998046875,-23.4375,0.8310546875,-1.3212890625,0.4443359375
1199,-297.18017578125,241.02783203125,-261.53564453125,-1.92138671875,-6.84912109375,3.41357421875
1200,223.32763671875,-161.31591796875,-133.1787109375,-0.55859375,1.34130859375,-0.71240234375
1201,198.66943359375,-11.5966796875,-193.4814453125,-2.08203125,0.8095703125,1.255859375
1202,-104.1259765625,-171.20361328125,-294.49462890625,-0.61865234375,-3.07568359375,1.287109375
1203,24.10888671875,-297.05810546875,-235.29052734375,0.45458984375,-0.1474609375,1.1708984375
1204,187.19482421875,-119.140625,-130.4931640625,2.01513671875,-2.0810546875,1.3095703125
1205,-9.765625,-44.61669921875,-12.63427734375,1.4326171875,-1.17578125,1.1142578125
1206,46.630859375,-101.74560546875,-9.6435546875,-0.54931640625,-0.9169921875,-0.6005859375
1207,8.72802734375,-90.087890625,-28.13720703125,0.09130859375,-0.52783203125,1.263671875
1208,0.0,-13.12255859375,-10.19287109375,-0.05712890625,-1.12353515625,0.5986328125
1209,-13.916015625,-27.099609375,-9.521484375,-0.30419921875,-1.06494140625,0.115234375
1210,8.60595703125,-10.07080078125,-1.89208984375,-0.17333984375,-0.9921875,0.37841796875
1211,-2.13623046875,-3.11279296875,-1.220703125,-0.1787109375,-1.22607421875,0.11669921875
1212,4.150390625,0.732421875,3.41796875,-0.26953125,-1.02880859375,0.25634765625
1213,8.7890625,-1.708984375,-3.90625,-0.39111328125,-0.99853515625,0.15625
1214,8.60595703125,-8.4228515625,-13.61083984375,-0.38916015625,-0.9931640625,0.18310546875
1215,0.48828125,-13.97705078125,-18.61572265625,-0.24951171875,-0.98046875,0.3232421875
1216,1.77001953125,-13.0615234375,-17.51708984375,-0.25,-1.04345703125,0.2529296875
1217,0.732421875,-12.14599609375,-16.90673828125,-0.2529296875,-1.04736328125,0.27978515625
1218,-0.30517578125,-9.58251953125,-15.869140625,-0.23046875,-1.03369140625,0.3115234375
1219,-3.0517578125,-8.97216796875,-16.4794921875,-0.2626953125,-1.00927734375,0.29052734375
1220,-4.2724609375,-6.89697265625,-15.2587890625,-0.23291015625,-1.06005859375,0.26220703125
1221,-5.67626953125,-6.34765625,-14.892578125,-0.263671875,-1.02197265625,0.27783203125
1222,-7.38525390625,-5.67626953125,-16.845703125,-0.2568359375,-1.08740234375,0.23046875
1223,-6.16455078125,-4.7607421875,-17.578125,-0.24462890625,-1.06103515625,0.22265625
1224,-4.0283203125,-2.62451171875,-17.2119140625,-0.22021484375,-1.060546875,0.24462890625
1225,-2.62451171875,0.732421875,-12.63427734375,-0.16748046875,-1.00830078125,0.3388671875
1226,-8.7890625,1.77001953125,-13.0615234375,-0.23095703125,-0.9814453125,0.32421875
1227,-13.18359375,-0.244140625,-13.0615234375,-0.224609375,-1.0185546875,0.30078125
1228,-18.37158203125,-1.953125,-14.5263671875,-0.25390625,-1.021484375,0.26708984375
1229,-22.705078125,-5.9814453125,-15.9912109375,-0.25830078125,-1.0234375,0.21533203125
1230,-29.11376953125,-8.48388671875,-17.76123046875,-0.25537109375,-1.06298828125,0.18701171875
1231,-30.33447265625,-9.6435546875,-17.4560546875,-0.240234375,-1.095703125,0.1806640625
1232,-26.91650390625,-8.72802734375,-15.56396484375,-0.171875,-1.072265625,0.23486328125
1233,-19.8974609375,-2.9296875,-16.54052734375,-0.22412109375,-1.1279296875,0.20556640625
1234,1.03759765625,-1.40380859375,-15.56396484375,-0.1640625,-1.0400390625,0.19580078125
1235,0.54931640625,1.89208984375,-18.37158203125,-0.27734375,-1.25537109375,0.318359375
1236,9.94873046875,1.220703125,-19.34814453125,-0.2080078125,-1.0703125,0.27685546875
1237,20.69091796875,-0.30517578125,-22.8271484375,-0.09912109375,-0.88623046875,0.3662109375
1238,9.6435546875,-0.91552734375,-21.728515625,-0.2001953125,-0.98046875,0.35498046875
1239,4.8828125,-1.40380859375,-24.169921875,-0.24267578125,-1.087890625,0.35009765625
1240,5.18798828125,-4.39453125,-26.123046875,-0.19775390625,-1.06396484375,0.2744140625
1241,6.7138671875,-2.74658203125,-28.25927734375,-0.22802734375,-1.1376953125,0.26318359375
1242,8.544921875,0.244140625,-32.40966796875,-0.22998046875,-1.09814453125,0.28857421875
1243,9.46044921875,2.86865234375,-35.5224609375,-0.23388671875,-1.1162109375,0.298828125
1244,9.82666015625,5.31005859375,-39.97802734375,-0.2099609375,-1.1181640625,0.291015625
1245,8.23974609375,10.009765625,-44.73876953125,-0.2236328125,-1.11669921875,0.2890625
1246,5.55419921875,8.36181640625,-48.52294921875,-0.2470703125,-1.07763671875,0.365234375
1247,2.62451171875,7.87353515625,-54.6875,-0.224609375,-1.142578125,0.37158203125
1248,-0.30517578125,7.26318359375,-61.46240234375,-0.26025390625,-1.1494140625,0.3115234375
1249,-2.86865234375,8.7890625,-69.64111328125,-0.25732421875,-1.2353515625,0.27685546875
1250,-2.8076171875,9.82666015625,-80.9326171875,-0.2783203125,-1.275390625,0.23486328125
1251,0.67138671875,12.26806640625,-93.505859375,-0.31494140625,-1.3671875,0.24365234375
1252,1.77001953125,18.85986328125,-110.04638671875,-0.33251953125,-1.3427734375,0.24658203125
1253,7.14111328125,20.69091796875,-128.41796875,-0.392578125,-1.37353515625,0.23095703125
1254,11.3525390625,18.85986328125,-145.69091796875,-0.3955078125,-1.34423828125,0.2626953125
1255,10.25390625,19.59228515625,-167.236328125,-0.38623046875,-1.3203125,0.26171875
1256,9.8876953125,21.484375,-189.63623046875,-0.3740234375,-1.375,0.265625
1257,4.45556640625,22.5830078125,-211.60888671875,-0.3779296875,-1.3251953125,0.208984375
1258,-3.0517578125,17.51708984375,-234.55810546875,-0.3662109375,-1.3984375,0.25244140625
1259,-7.6904296875,12.5732421875,-259.1552734375,-0.5029296875,-1.45556640625,0.2734375
1260,-3.96728515625,8.544921875,-283.87451171875,-0.4892578125,-1.4697265625,0.19580078125
1261,6.7138671875,7.080078125,-311.5234375,-0.53125,-1.60546875,-0.0263671875
1262,24.84130859375,-5.859375,-334.04541015625,-0.587890625,-1.8173828125,-0.16650390625
1263,52.3681640625,-33.50830078125,-362.548828125,-0.4423828125,-1.9033203125,-0.0810546875
1264,76.7822265625,-47.05810546875,-382.4462890625,-0.52490234375,-2.15576171875,-0.08447265625
1265,101.07421875,-50.23193359375,-407.16552734375,-0.4345703125,-2.57177734375,0.0068359375
1266,94.23828125,-38.63525390625,-435.24169921875,-0.109375,-2.14013671875,0.45458984375
1267,75.5615234375,-0.9765625,-453.79638671875,-0.3330078125,-2.51611328125,0.57861328125
1268,73.974609375,-5.67626953125,-451.904296875,-0.73828125,-3.03662109375,0.47021484375
1269,118.2861328125,-11.1083984375,-460.99853515625,-0.9833984375,-3.16259765625,-0.1259765625
1270,144.95849609375,-11.16943359375,-441.0400390625,-1.2109375,-2.3662109375,-0.3046875
1271,160.5224609375,36.80419921875,-341.97998046875,0.21435546875,0.9423828125,-0.1396484375
1272,-34.85107421875,62.92724609375,2.38037109375,-1.53466796875,-3.2353515625,-2.068359375
1273,65.0634765625,61.4013671875,134.21630859375,-1.36181640625,-2.83935546875,-0.5478515625
1274,119.384765625,67.5048828125,196.2890625,-1.42822265625,-1.181640625,-0.1689453125
1275,93.75,101.1962890625,200.3173828125,-1.01123046875,-0.46923828125,-0.3779296875
1276,18.12744140625,133.97216796875,197.021484375,-0.826171875,-0.16552734375,-0.16943359375
1277,-43.5791015625,159.66796875,202.1484375,-0.859375,-0.2216796875,-0.2119140625
1278,-74.70703125,165.83251953125,226.07421875,-0.96728515625,-0.52978515625,-0.1611328125
1279,-63.720703125,148.193359375,262.3291015625,-1.09912109375,-0.84033203125,-0.2001953125
1280,-33.63037109375,128.84521484375,293.51806640625,-1.0927734375,-0.880859375,-0.16748046875
1281,-20.3857421875,109.9853515625,311.21826171875,-0.95947265625,-0.68212890625,-0.06005859375
1282,-39.36767578125,98.57177734375,313.29345703125,-0.79345703125,-0.44140625,-0.0048828125
1283,-75.98876953125,95.15380859375,305.7861328125,-0.64501953125,-0.37353515625,0.01953125
1284,-118.34716796875,94.970703125,293.45703125,-0.58642578125,-0.49951171875,0.02880859375
1285,-154.96826171875,91.9189453125,287.04833984375,-0.54443359375,-0.6640625,0.03955078125
1286,-178.7109375,92.10205078125,291.19873046875,-0.54736328125,-0.88720703125,0.07421875
1287,-191.10107421875,92.10205078125,300.10986328125,-0.56103515625,-1.16748046875,0.09228515625
1288,-196.533203125,91.85791015625,307.373046875,-0.4853515625,-1.32763671875,0.1533203125
1289,-202.7587890625,95.0927734375,312.80517578125,-0.34912109375,-1.4306640625,0.24951171875
1290,-210.75439453125,101.9287109375,312.07275390625,-0.2685546875,-1.525390625,0.34423828125
1291,-223.44970703125,101.01318359375,305.17578125,-0.23681640625,-1.60595703125,0.51171875
1292,-220.3369140625,82.33642578125,298.52294921875,-0.318359375,-1.97900390625,0.51953125
1293,-186.09619140625,50.72021484375,296.32568359375,-0.3125,-2.25341796875,0.6005859375
1294,-146.484375,20.56884765625,292.54150390625,-0.20068359375,-2.134765625,0.65185546875
1295,-141.54052734375,7.568359375,286.2548828125,0.087890625,-1.75244140625,0.78515625
1296,-183.349609375,25.69580078125,270.1416015625,0.455078125,-1.51953125,0.86181640625
1297,-227.294921875,38.26904296875,265.869140625,0.48388671875,-1.99267578125,0.947265625
1298,-210.44921875,32.53173828125,283.75244140625,0.31396484375,-2.69775390625,0.9033203125
1299,-148.92578125,4.39453125,306.5185546875,0.23388671875,-3.0087890625,0.9921875
1300,-74.8291015625,-31.3720703125,314.453125,0.49072265625,-2.9208984375,1.05029296875
1301,-26.2451171875,-59.87548828125,302.001953125,0.8984375,-2.66552734375,0.89892578125
1302,3.5400390625,-76.84326171875,276.2451171875,1.32861328125,-2.576171875,0.64697265625
1303,14.22119140625,-84.228515625,244.68994140625,1.73486328125,-2.3798828125,0.521484375
1304,5.92041015625,-83.984375,209.3505859375,2.0283203125,-2.08154296875,0.4775390625
1305,-21.30126953125,-86.97509765625,164.12353515625,2.13818359375,-1.7373046875,0.65966796875
1306,-60.60791015625,-98.93798828125,107.97119140625,2.046875,-1.46240234375,0.97509765625
1307,-91.4306640625,-116.455078125,53.64990234375,1.96142578125,-1.40576171875,1.248046875
1308,-90.27099609375,-144.775390625,14.70947265625,1.96533203125,-1.87255859375,1.392578125
1309,-39.12353515625,-166.93115234375,-6.591796875,2.08544921875,-2.20849609375,1.26171875
1310,14.6484375,-170.59326171875,-28.3203125,2.2255859375,-2.0693359375,1.15478515625
1311,232.421875,-193.78662109375,-209.5947265625,5.42724609375,-4.82568359375,1.5947265625
1312,19.47021484375,138.671875,-249.267578125,-0.068359375,2.119140625,0.2080078125
1313,-28.25927734375,57.2509765625,-270.81298828125,-1.7041015625,-1.8857421875,1.30615234375
1314,-57.861328125,-101.5625,-322.20458984375,-1.22216796875,-1.2392578125,-1.31591796875
1315,84.47265625,-181.57958984375,-267.15087890625,0.501953125,-2.08203125,0.6064453125
1316,151.18408203125,-127.0751953125,-235.9619140625,0.74755859375,-1.61083984375,0.68212890625
1317,57.92236328125,-154.84619140625,-178.1005859375,0.099609375,-1.73876953125,0.2197265625
1318,90.33203125,-167.96875,-139.70947265625,0.09765625,-1.33642578125,0.3369140625
1319,61.70654296875,-104.8583984375,-148.01025390625,-0.0458984375,-0.7451171875,0.8369140625
1320,55.5419921875,-84.716796875,-146.78955078125,-0.1806640625,-0.95751953125,0.2802734375
1321,9.8876953125,-78.67431640625,-149.5361328125,-0.12158203125,-1.00390625,0.11669921875
1322,-3.90625,-111.9384765625,-65.00244140625,0.00390625,-1.9755859375,-0.39794921875
1323,56.640625,-6.591796875,-27.52685546875,-0.2646484375,-0.51025390625,1.62744140625
1324,4.2724609375,-8.48388671875,-21.42333984375,-0.34130859375,-0.92529296875,-0.02490234375
1325,5.0048828125,-0.42724609375,-17.63916015625,-0.08056640625,-1.306640625,0.251953125
1326,-0.9765625,1.89208984375,-10.1318359375,-0.2001953125,-1.03173828125,0.328125
1327,-3.23486328125,4.82177734375,-8.30078125,-0.19580078125,-1.052734375,0.2822265625
1328,-4.638671875,4.69970703125,-6.34765625,-0.24072265625,-1.015625,0.28369140625
1329,-12.14599609375,5.43212890625,-6.77490234375,-0.22021484375,-0.998046875,0.3349609375
1330,-18.73779296875,5.7373046875,-9.3994140625,-0.26171875,-1.00146484375,0.27880859375
1331,-28.6865234375,3.84521484375,-13.18359375,-0.27490234375,-0.97021484375,0.27880859375
1332,-35.888671875,1.89208984375,-16.66259765625,-0.27734375,-0.99169921875,0.24658203125
1333,-39.36767578125,1.89208984375,-18.5546875,-0.220703125,-1.04150390625,0.2353515625
1334,-34.3017578125,0.9765625,-18.61572265625,-0.2470703125,-1.0751953125,0.177734375
1335,-24.59716796875,-2.01416015625,-16.41845703125,-0.22802734375,-1.09619140625,0.10986328125
1336,-14.34326171875,0.06103515625,-13.12255859375,-0.19873046875,-1.09423828125,0.17822265625
1337,-6.65283203125,0.0,-11.5966796875,-0.22216796875,-1.0595703125,0.13916015625
1338,0.3662109375,-1.52587890625,-12.8173828125,-0.24365234375,-1.06982421875,0.126953125
1339,3.0517578125,-2.62451171875,-14.09912109375,-0.23095703125,-1.0478515625,0.1904296875
1340,4.5166015625,-3.173828125,-15.19775390625,-0.234375,-1.06298828125,0.1748046875
1341,10.009765625,-5.18798828125,-15.31982421875,-0.24462890625,-1.10595703125,0.1240234375
1342,18.6767578125,-9.46044921875,-14.404296875,-0.20458984375,-1.07080078125,0.1689453125
1343,26.18408203125,-8.544921875,-15.2587890625,-0.2177734375,-1.15576171875,0.22119140625
1344,30.45654296875,-6.28662109375,-15.2587890625,-0.16845703125,-1.01513671875,0.2080078125
1345,38.0859375,-3.90625,-12.75634765625,-0.12109375,-1.07373046875,0.2666015625
1346,35.15625,0.9765625,-13.916015625,-0.21728515625,-1.001953125,0.25537109375
1347,35.46142578125,0.79345703125,-14.95361328125,-0.20458984375,-1.0576171875,0.34814453125
1348,29.96826171875,-0.244140625,-20.6298828125,-0.177734375,-1.10986328125,0.3671875
1349,16.05224609375,2.25830078125,-24.10888671875,-0.15771484375,-1.1025390625,0.3701171875
1350,18.37158203125,9.6435546875,-27.4658203125,-0.20068359375,-1.134765625,0.2822265625
