n_samples,gyr_x,gyr_y,gyr_z,acc_x,acc_y,acc_z
0,0.1220703125,0.732421875,-0.42724609375,-0.04248046875,-0.9091796875,0.515625
1,0.0,0.732421875,-0.48828125,-0.04248046875,-0.9091796875,0.51416015625
2,-0.06103515625,0.67138671875,-0.48828125,-0.04248046875,-0.9111328125,0.51416015625
3,0.0,0.67138671875,-0.54931640625,-0.0419921875,-0.91064453125,0.5146484375
4,-0.18310546875,0.54931640625,-0.54931640625,-0.0419921875,-0.91259765625,0.51123046875
5,-0.06103515625,0.3662109375,-0.6103515625,-0.04248046875,-0.90966796875,0.5146484375
6,0.0,0.30517578125,-0.42724609375,-0.04345703125,-0.90966796875,0.51513671875
7,0.06103515625,0.3662109375,-0.54931640625,-0.04296875,-0.9111328125,0.5146484375
8,0.244140625,0.42724609375,-0.54931640625,-0.04296875,-0.91015625,0.51708984375
9,0.3662109375,0.3662109375,-0.42724609375,-0.0419921875,-0.908203125,0.5166015625
10,0.18310546875,0.3662109375,-0.54931640625,-0.04150390625,-0.908203125,0.5166015625
11,0.0,0.48828125,-0.54931640625,-0.04345703125,-0.9091796875,0.5185546875
12,-0.06103515625,0.6103515625,-0.48828125,-0.04443359375,-0.9111328125,0.51513671875
13,-0.06103515625,0.54931640625,-0.48828125,-0.04052734375,-0.9111328125,0.5126953125
14,0.0,0.54931640625,-0.42724609375,-0.04541015625,-0.9091796875,0.515625
15,-0.1220703125,0.54931640625,-0.54931640625,-0.04345703125,-0.9091796875,0.515625
16,-0.18310546875,0.42724609375,-0.48828125,-0.0419921875,-0.90966796875,0.517578125
17,-0.18310546875,0.48828125,-0.42724609375,-0.041015625,-0.90966796875,0.51513671875
18,-0.18310546875,0.6103515625,-0.42724609375,-0.04150390625,-0.90869140625,0.5166015625
19,-0.3662109375,0.67138671875,-0.48828125,-0.04345703125,-0.90869140625,0.51513671875
20,-0.3662109375,0.732421875,-0.6103515625,-0.04248046875,-0.908203125,0.51513671875
21,-0.3662109375,0.732421875,-0.48828125,-0.04248046875,-0.90966796875,0.51611328125
22,-0.42724609375,0.79345703125,-0.48828125,-0.04345703125,-0.91162109375,0.5126953125
23,-0.30517578125,0.732421875,-0.48828125,-0.044921875,-0.91064453125,0.51123046875
24,-0.1220703125,0.6103515625,-0.48828125,-0.04345703125,-0.9091796875,0.513671875
25,0.06103515625,0.54931640625,-0.54931640625,-0.04052734375,-0.90966796875,0.5166015625
26,-0.06103515625,0.42724609375,-0.54931640625,-0.0419921875,-0.90771484375,0.51708984375
27,-0.244140625,0.54931640625,-0.42724609375,-0.04296875,-0.91015625,0.51416015625
28,-0.18310546875,0.48828125,-0.48828125,-0.04248046875,-0.91015625,0.515625
29,-0.1220703125,0.54931640625,-0.48828125,-0.0419921875,-0.91064453125,0.5146484375
30,-0.06103515625,0.3662109375,-0.54931640625,-0.04248046875,-0.91015625,0.51318359375
31,0.0,0.3662109375,-0.48828125,-0.0419921875,-0.9091796875,0.51318359375
32,0.1220703125,0.42724609375,-0.48828125,-0.04248046875,-0.9091796875,0.51611328125
33,0.06103515625,0.48828125,-0.48828125,-0.04248046875,-0.9072265625,0.51806640625
34,0.0,0.48828125,-0.42724609375,-0.041015625,-0.9072265625,0.51806640625
35,0.06103515625,0.48828125,-0.54931640625,-0.0400390625,-0.9091796875,0.513671875
36,0.0,0.42724609375,-0.54931640625,-0.04052734375,-0.91162109375,0.515625
37,0.18310546875,0.3662109375,-0.54931640625,-0.04443359375,-0.90966796875,0.515625
38,0.0,0.3662109375,-0.48828125,-0.0439453125,-0.91015625,0.51806640625
39,0.0,0.3662109375,-0.48828125,-0.04150390625,-0.9091796875,0.51611328125
40,0.0,0.42724609375,-0.54931640625,-0.04345703125,-0.91015625,0.513671875
41,-0.06103515625,0.3662109375,-0.42724609375,-0.04052734375,-0.90771484375,0.517578125
42,0.0,0.42724609375,-0.3662109375,-0.04052734375,-0.90966796875,0.5146484375
43,-0.06103515625,0.48828125,-0.48828125,-0.04150390625,-0.91015625,0.513671875
44,-0.42724609375,0.3662109375,-0.48828125,-0.0419921875,-0.908203125,0.51708984375
45,-0.1220703125,0.54931640625,-0.42724609375,-0.0439453125,-0.908203125,0.513671875
46,-0.06103515625,0.48828125,-0.54931640625,-0.04345703125,-0.91064453125,0.51513671875
47,-0.1220703125,0.42724609375,-0.48828125,-0.04248046875,-0.90771484375,0.517578125
48,-0.1220703125,0.48828125,-0.48828125,-0.0419921875,-0.91015625,0.515625
49,-0.06103515625,0.54931640625,-0.54931640625,-0.04296875,-0.9091796875,0.51416015625
50,-0.1220703125,0.48828125,-0.48828125,-0.04345703125,-0.912109375,0.5146484375
51,-0.18310546875,0.3662109375,-0.6103515625,-0.04345703125,-0.91015625,0.51416015625
52,0.0,0.3662109375,-0.54931640625,-0.04443359375,-0.90869140625,0.51513671875
53,0.30517578125,0.30517578125,-0.48828125,-0.04345703125,-0.90625,0.5166015625
54,0.30517578125,0.3662109375,-0.54931640625,-0.04052734375,-0.91162109375,0.51806640625
55,0.244140625,0.3662109375,-0.54931640625,-0.04296875,-0.9091796875,0.51806640625
56,0.18310546875,0.244140625,-0.48828125,-0.04443359375,-0.90966796875,0.515625
57,-0.18310546875,0.18310546875,-0.48828125,-0.04345703125,-0.91162109375,0.51611328125
58,0.30517578125,0.3662109375,-0.54931640625,-0.0439453125,-0.908203125,0.51904296875
59,0.3662109375,0.244140625,-0.48828125,-0.04150390625,-0.90966796875,0.5146484375
60,0.42724609375,0.30517578125,-0.48828125,-0.04150390625,-0.90966796875,0.52001953125
61,0.48828125,0.42724609375,-0.48828125,-0.04296875,-0.90576171875,0.51953125
62,0.3662109375,0.3662109375,-0.54931640625,-0.04541015625,-0.9072265625,0.51416015625
63,0.0,0.3662109375,-0.48828125,-0.04345703125,-0.908203125,0.51611328125
64,0.1220703125,0.30517578125,-0.54931640625,-0.0419921875,-0.908203125,0.5146484375
65,0.48828125,0.244140625,-0.54931640625,-0.04296875,-0.90673828125,0.51416015625
66,0.6103515625,0.30517578125,-0.54931640625,-0.0400390625,-0.908203125,0.51416015625
67,0.732421875,0.06103515625,-0.54931640625,-0.0419921875,-0.90869140625,0.51708984375
68,0.91552734375,0.06103515625,-0.42724609375,-0.04248046875,-0.90771484375,0.515625
69,0.91552734375,-0.06103515625,-0.48828125,-0.04345703125,-0.90966796875,0.513671875
70,1.03759765625,-0.1220703125,-0.3662109375,-0.04345703125,-0.91015625,0.5126953125
71,1.220703125,-0.06103515625,-0.3662109375,-0.0458984375,-0.9052734375,0.51904296875
72,1.220703125,-0.244140625,-0.42724609375,-0.04296875,-0.90478515625,0.521484375
73,1.03759765625,-0.30517578125,-0.42724609375,-0.04052734375,-0.90673828125,0.51953125
74,0.91552734375,-0.30517578125,-0.42724609375,-0.04150390625,-0.90771484375,0.5185546875
75,1.0986328125,-0.1220703125,-0.3662109375,-0.04150390625,-0.9052734375,0.52197265625
76,0.9765625,-0.18310546875,-0.30517578125,-0.0419921875,-0.91015625,0.51708984375
77,1.28173828125,-0.18310546875,-0.3662109375,-0.0439453125,-0.91162109375,0.51220703125
78,1.64794921875,-0.3662109375,-0.42724609375,-0.0458984375,-0.90771484375,0.51611328125
79,1.64794921875,-0.79345703125,-0.3662109375,-0.0439453125,-0.90673828125,0.52099609375
80,1.8310546875,-0.54931640625,-0.42724609375,-0.04150390625,-0.90380859375,0.51708984375
81,1.89208984375,-0.6103515625,-0.54931640625,-0.041015625,-0.90576171875,0.5205078125
82,2.0751953125,-0.3662109375,-0.6103515625,-0.04248046875,-0.90625,0.5224609375
83,2.0751953125,-0.732421875,-0.54931640625,-0.0400390625,-0.90771484375,0.5234375
84,2.13623046875,-0.54931640625,-0.54931640625,-0.04296875,-0.90625,0.525390625
85,2.01416015625,-0.732421875,-0.54931640625,-0.04150390625,-0.90673828125,0.5166015625
86,2.3193359375,-0.67138671875,-0.48828125,-0.04296875,-0.90625,0.51904296875
87,2.44140625,-0.732421875,-0.42724609375,-0.03955078125,-0.90234375,0.5244140625
88,1.89208984375,-0.48828125,-0.54931640625,-0.0380859375,-0.90185546875,0.53173828125
89,1.46484375,-0.3662109375,-0.67138671875,-0.041015625,-0.9072265625,0.5185546875
90,1.52587890625,-0.18310546875,-0.67138671875,-0.04052734375,-0.9013671875,0.52734375
91,1.0986328125,-0.18310546875,-0.67138671875,-0.04052734375,-0.90478515625,0.52734375
92,1.0986328125,-0.06103515625,-0.67138671875,-0.0458984375,-0.9072265625,0.52587890625
93,1.03759765625,-0.30517578125,-0.67138671875,-0.04150390625,-0.90771484375,0.52099609375
94,0.9765625,-0.18310546875,-0.54931640625,-0.04052734375,-0.90234375,0.52587890625
95,0.732421875,0.06103515625,-0.54931640625,-0.04248046875,-0.900390625,0.5322265625
96,0.42724609375,0.06103515625,-0.6103515625,-0.04150390625,-0.90771484375,0.5234375
97,0.42724609375,0.1220703125,-0.67138671875,-0.03955078125,-0.90576171875,0.5244140625
98,0.244140625,0.1220703125,-0.48828125,-0.0400390625,-0.9033203125,0.52392578125
99,0.0,0.18310546875,-0.48828125,-0.041015625,-0.90283203125,0.529296875
100,-0.06103515625,0.30517578125,-0.48828125,-0.0400390625,-0.90380859375,0.52587890625
101,-0.06103515625,0.3662109375,-0.54931640625,-0.0400390625,-0.9033203125,0.5205078125
102,-0.06103515625,0.3662109375,-0.42724609375,-0.03759765625,-0.90576171875,0.52392578125
103,-0.06103515625,0.30517578125,-0.48828125,-0.04150390625,-0.90380859375,0.52587890625
104,-0.06103515625,0.30517578125,-0.54931640625,-0.0400390625,-0.904296875,0.5263671875
105,-0.06103515625,0.30517578125,-0.48828125,-0.0400390625,-0.9072265625,0.5224609375
106,0.06103515625,0.18310546875,-0.48828125,-0.04150390625,-0.9013671875,0.5283203125
107,-0.1220703125,0.30517578125,-0.48828125,-0.041015625,-0.90478515625,0.52392578125
108,-0.06103515625,0.30517578125,-0.42724609375,-0.0400390625,-0.90478515625,0.52294921875
109,0.0,0.30517578125,-0.42724609375,-0.04052734375,-0.90283203125,0.52490234375
110,0.1220703125,0.244140625,-0.30517578125,-0.03759765625,-0.90478515625,0.52294921875
111,0.1220703125,0.244140625,-0.3662109375,-0.04150390625,-0.90673828125,0.52490234375
112,-0.06103515625,0.244140625,-0.48828125,-0.03955078125,-0.904296875,0.5283203125
113,-0.1220703125,0.18310546875,-0.3662109375,-0.03759765625,-0.9052734375,0.525390625
114,-0.06103515625,0.244140625,-0.30517578125,-0.04150390625,-0.90576171875,0.52392578125
115,0.0,0.244140625,-0.3662109375,-0.04150390625,-0.904296875,0.525390625
116,-0.1220703125,0.30517578125,-0.30517578125,-0.041015625,-0.904296875,0.5302734375
117,-0.06103515625,0.30517578125,-0.42724609375,-0.041015625,-0.9052734375,0.52685546875
118,-0.06103515625,0.42724609375,-0.42724609375,-0.041015625,-0.904296875,0.52783203125
119,-0.18310546875,0.42724609375,-0.42724609375,-0.04052734375,-0.90576171875,0.529296875
120,-0.18310546875,0.244140625,-0.30517578125,-0.04052734375,-0.90478515625,0.5244140625
121,-0.244140625,0.3662109375,-0.3662109375,-0.04345703125,-0.90087890625,0.5283203125
122,-0.48828125,0.3662109375,-0.3662109375,-0.04150390625,-0.9033203125,0.52734375
123,-0.244140625,0.3662109375,-0.3662109375,-0.04150390625,-0.90576171875,0.51904296875
124,-0.18310546875,0.3662109375,-0.42724609375,-0.041015625,-0.904296875,0.52197265625
125,-0.18310546875,0.3662109375,-0.42724609375,-0.04052734375,-0.9052734375,0.52587890625
126,-0.244140625,0.3662109375,-0.3662109375,-0.04345703125,-0.9052734375,0.52685546875
127,-0.18310546875,0.3662109375,-0.3662109375,-0.04296875,-0.904296875,0.52490234375
128,-0.244140625,0.3662109375,-0.42724609375,-0.0400390625,-0.90283203125,0.52490234375
129,-0.3662109375,0.3662109375,-0.42724609375,-0.03955078125,-0.9033203125,0.52392578125
130,-0.3662109375,0.54931640625,-0.42724609375,-0.04248046875,-0.90380859375,0.52783203125
131,-0.42724609375,0.48828125,-0.42724609375,-0.041015625,-0.9033203125,0.525390625
132,-0.3662109375,0.48828125,-0.42724609375,-0.0419921875,-0.90185546875,0.52587890625
133,-0.3662109375,0.54931640625,-0.48828125,-0.0419921875,-0.90478515625,0.52392578125
134,-0.3662109375,0.54931640625,-0.54931640625,-0.0439453125,-0.904296875,0.5244140625
135,-0.30517578125,0.54931640625,-0.54931640625,-0.04052734375,-0.90625,0.52392578125
136,-0.3662109375,0.6103515625,-0.48828125,-0.04150390625,-0.90380859375,0.52734375
137,-0.30517578125,0.6103515625,-0.48828125,-0.041015625,-0.904296875,0.5244140625
138,-0.42724609375,0.48828125,-0.54931640625,-0.04150390625,-0.904296875,0.52197265625
139,-0.42724609375,0.48828125,-0.48828125,-0.04296875,-0.90380859375,0.52587890625
140,-0.30517578125,0.54931640625,-0.48828125,-0.04248046875,-0.90673828125,0.52490234375
141,-0.244140625,0.48828125,-0.42724609375,-0.0400390625,-0.90380859375,0.5234375
142,-0.244140625,0.42724609375,-0.42724609375,-0.04345703125,-0.9033203125,0.52734375
143,-0.244140625,0.42724609375,-0.42724609375,-0.0419921875,-0.90625,0.52490234375
144,-0.30517578125,0.42724609375,-0.54931640625,-0.0400390625,-0.90673828125,0.52880859375
145,-0.3662109375,0.3662109375,-0.42724609375,-0.04150390625,-0.904296875,0.52685546875
146,-0.30517578125,0.30517578125,-0.3662109375,-0.0419921875,-0.9052734375,0.52294921875
147,-0.30517578125,0.3662109375,-0.48828125,-0.04296875,-0.90380859375,0.525390625
148,-0.244140625,0.42724609375,-0.42724609375,-0.041015625,-0.90576171875,0.52734375
149,-0.30517578125,0.3662109375,-0.48828125,-0.0400390625,-0.9052734375,0.52685546875
150,-0.3662109375,0.3662109375,-0.48828125,-0.0419921875,-0.90576171875,0.52294921875
151,-0.06103515625,0.244140625,-0.42724609375,-0.041015625,-0.90625,0.51806640625
152,0.0,0.244140625,-0.3662109375,-0.03759765625,-0.90625,0.5244140625
153,-0.1220703125,0.30517578125,-0.3662109375,-0.0419921875,-0.90380859375,0.5224609375
154,-0.244140625,0.30517578125,-0.42724609375,-0.03955078125,-0.90380859375,0.5244140625
155,-0.244140625,0.30517578125,-0.42724609375,-0.041015625,-0.9033203125,0.52490234375
156,-0.3662109375,0.42724609375,-0.42724609375,-0.04443359375,-0.904296875,0.5234375
157,-0.48828125,0.42724609375,-0.42724609375,-0.0419921875,-0.90380859375,0.5244140625
158,-0.54931640625,0.48828125,-0.42724609375,-0.04052734375,-0.9052734375,0.525390625
159,-0.6103515625,0.54931640625,-0.3662109375,-0.0419921875,-0.9013671875,0.52587890625
160,-0.67138671875,0.54931640625,-0.3662109375,-0.041015625,-0.90380859375,0.52490234375
161,-0.6103515625,0.6103515625,-0.42724609375,-0.04296875,-0.90625,0.5244140625
162,-0.6103515625,0.6103515625,-0.3662109375,-0.04296875,-0.90625,0.52490234375
163,-0.54931640625,0.732421875,-0.42724609375,-0.04248046875,-0.90380859375,0.52734375
164,-0.67138671875,0.6103515625,-0.42724609375,-0.04296875,-0.9072265625,0.5234375
165,-0.6103515625,0.54931640625,-0.30517578125,-0.04052734375,-0.9052734375,0.52685546875
166,-0.67138671875,0.6103515625,-0.30517578125,-0.04052734375,-0.90625,0.52392578125
167,-0.79345703125,0.6103515625,-0.3662109375,-0.04248046875,-0.9052734375,0.52587890625
168,-0.79345703125,0.6103515625,-0.30517578125,-0.03955078125,-0.90625,0.5185546875
169,-0.732421875,0.67138671875,-0.42724609375,-0.041015625,-0.9072265625,0.5205078125
170,-0.732421875,0.6103515625,-0.48828125,-0.041015625,-0.9052734375,0.51953125
171,-0.6103515625,0.6103515625,-0.42724609375,-0.041015625,-0.90380859375,0.5205078125
172,-0.54931640625,0.54931640625,-0.42724609375,-0.0439453125,-0.904296875,0.52197265625
173,-0.3662109375,0.54931640625,-0.42724609375,-0.0439453125,-0.9052734375,0.52490234375
174,-0.244140625,0.48828125,-0.42724609375,-0.04296875,-0.90576171875,0.52197265625
175,-0.06103515625,0.30517578125,-0.54931640625,-0.04248046875,-0.90234375,0.521484375
176,0.1220703125,0.244140625,-0.54931640625,-0.04296875,-0.90478515625,0.5205078125
177,0.1220703125,0.244140625,-0.48828125,-0.04248046875,-0.90625,0.52734375
178,0.0,0.244140625,-0.48828125,-0.04150390625,-0.90576171875,0.52392578125
179,0.30517578125,0.3662109375,-0.48828125,-0.04248046875,-0.90673828125,0.51708984375
180,0.18310546875,0.42724609375,-0.48828125,-0.04296875,-0.9052734375,0.5263671875
181,0.0,0.244140625,-0.48828125,-0.04638671875,-0.90478515625,0.525390625
182,0.0,0.18310546875,-0.48828125,-0.04541015625,-0.90673828125,0.5244140625
183,0.244140625,0.244140625,-0.48828125,-0.03955078125,-0.9072265625,0.52392578125
184,0.3662109375,0.30517578125,-0.54931640625,-0.0390625,-0.9072265625,0.5234375
185,0.18310546875,0.30517578125,-0.54931640625,-0.044921875,-0.904296875,0.5263671875
186,0.06103515625,0.1220703125,-0.54931640625,-0.04345703125,-0.90380859375,0.52294921875
187,0.18310546875,0.18310546875,-0.48828125,-0.04345703125,-0.904296875,0.52001953125
188,0.30517578125,0.18310546875,-0.48828125,-0.04296875,-0.90673828125,0.52294921875
189,0.42724609375,0.18310546875,-0.48828125,-0.04296875,-0.90576171875,0.525390625
190,0.3662109375,0.1220703125,-0.54931640625,-0.04296875,-0.90625,0.52392578125
191,0.42724609375,0.18310546875,-0.54931640625,-0.0439453125,-0.90478515625,0.52587890625
192,0.42724609375,0.18310546875,-0.48828125,-0.04150390625,-0.90673828125,0.52587890625
193,0.6103515625,0.244140625,-0.48828125,-0.04248046875,-0.90478515625,0.521484375
194,0.6103515625,0.18310546875,-0.6103515625,-0.04345703125,-0.9033203125,0.52490234375
195,0.3662109375,0.1220703125,-0.54931640625,-0.0419921875,-0.90380859375,0.52490234375
196,0.3662109375,0.244140625,-0.54931640625,-0.04150390625,-0.9033203125,0.52734375
197,0.244140625,0.244140625,-0.6103515625,-0.0419921875,-0.9033203125,0.52978515625
198,0.18310546875,0.244140625,-0.54931640625,-0.03955078125,-0.90478515625,0.52294921875
199,0.30517578125,0.30517578125,-0.48828125,-0.04150390625,-0.90625,0.52099609375
200,0.3662109375,0.18310546875,-0.54931640625,-0.04296875,-0.90625,0.52099609375
201,0.54931640625,0.244140625,-0.6103515625,-0.0419921875,-0.90673828125,0.52294921875
202,0.6103515625,0.30517578125,-0.54931640625,-0.04150390625,-0.90478515625,0.5244140625
203,0.42724609375,0.1220703125,-0.54931640625,-0.04248046875,-0.90625,0.5234375
204,0.67138671875,0.18310546875,-0.54931640625,-0.0419921875,-0.9052734375,0.52392578125
205,0.42724609375,0.0,-0.54931640625,-0.04296875,-0.90380859375,0.525390625
206,0.48828125,0.06103515625,-0.6103515625,-0.04296875,-0.90380859375,0.52294921875
207,0.48828125,0.18310546875,-0.48828125,-0.041015625,-0.90185546875,0.529296875
208,0.3662109375,0.18310546875,-0.48828125,-0.0400390625,-0.9052734375,0.52587890625
209,0.48828125,0.18310546875,-0.48828125,-0.0419921875,-0.9033203125,0.52392578125
210,0.48828125,0.244140625,-0.48828125,-0.0400390625,-0.90087890625,0.52880859375
211,0.3662109375,0.3662109375,-0.54931640625,-0.04296875,-0.9052734375,0.52783203125
212,0.30517578125,0.42724609375,-0.6103515625,-0.044921875,-0.9052734375,0.52685546875
213,0.18310546875,0.42724609375,-0.6103515625,-0.04248046875,-0.9013671875,0.52685546875
214,-0.18310546875,0.30517578125,-0.6103515625,-0.0419921875,-0.904296875,0.52392578125
215,0.0,0.42724609375,-0.6103515625,-0.0439453125,-0.90576171875,0.521484375
216,0.18310546875,0.3662109375,-0.6103515625,-0.04248046875,-0.90185546875,0.52685546875
217,0.0,0.244140625,-0.6103515625,-0.04296875,-0.90380859375,0.5283203125
218,-0.18310546875,0.30517578125,-0.6103515625,-0.03857421875,-0.90625,0.52685546875
219,0.18310546875,0.54931640625,-0.6103515625,-0.03759765625,-0.90283203125,0.5302734375
220,-0.1220703125,0.54931640625,-0.6103515625,-0.04150390625,-0.9033203125,0.525390625
221,-0.48828125,0.42724609375,-0.67138671875,-0.041015625,-0.908203125,0.521484375
222,0.06103515625,0.54931640625,-0.67138671875,-0.0419921875,-0.904296875,0.52587890625
223,-0.244140625,0.42724609375,-0.6103515625,-0.04052734375,-0.90185546875,0.52978515625
224,-0.3662109375,0.3662109375,-0.6103515625,-0.041015625,-0.90673828125,0.52197265625
225,0.18310546875,0.42724609375,-0.6103515625,-0.04345703125,-0.90576171875,0.5244140625
226,0.1220703125,0.30517578125,-0.6103515625,-0.0419921875,-0.90380859375,0.52685546875
227,0.1220703125,0.30517578125,-0.6103515625,-0.04248046875,-0.90478515625,0.5244140625
228,-0.1220703125,0.18310546875,-0.6103515625,-0.04248046875,-0.90380859375,0.52587890625
229,0.1220703125,0.30517578125,-0.6103515625,-0.041015625,-0.90283203125,0.52783203125
230,0.18310546875,0.3662109375,-0.6103515625,-0.0419921875,-0.9033203125,0.5263671875
231,0.1220703125,0.3662109375,-0.6103515625,-0.04345703125,-0.90380859375,0.52587890625
232,0.1220703125,0.244140625,-0.54931640625,-0.04052734375,-0.9052734375,0.52392578125
233,0.18310546875,0.244140625,-0.54931640625,-0.04052734375,-0.9033203125,0.52294921875
234,0.244140625,0.18310546875,-0.48828125,-0.04052734375,-0.90283203125,0.52685546875
235,0.1220703125,0.3662109375,-0.54931640625,-0.04296875,-0.9033203125,0.52734375
236,0.0,0.30517578125,-0.54931640625,-0.041015625,-0.90087890625,0.52880859375
237,0.0,0.18310546875,-0.6103515625,-0.0400390625,-0.90283203125,0.5283203125
238,-0.18310546875,0.1220703125,-0.6103515625,-0.0419921875,-0.90283203125,0.5263671875
239,-0.48828125,0.1220703125,-0.54931640625,-0.04150390625,-0.9052734375,0.525390625
240,0.0,0.3662109375,-0.6103515625,-0.041015625,-0.90283203125,0.5263671875
241,-0.06103515625,0.3662109375,-0.6103515625,-0.041015625,-0.90380859375,0.52490234375
242,-0.06103515625,0.30517578125,-0.54931640625,-0.041015625,-0.9033203125,0.5234375
243,0.0,0.30517578125,-0.48828125,-0.0439453125,-0.90380859375,0.52685546875
244,0.06103515625,0.30517578125,-0.54931640625,-0.04296875,-0.9052734375,0.5234375
245,0.0,0.30517578125,-0.48828125,-0.041015625,-0.90283203125,0.5234375
246,0.0,0.3662109375,-0.54931640625,-0.03955078125,-0.9013671875,0.529296875
247,-0.06103515625,0.3662109375,-0.54931640625,-0.03955078125,-0.90234375,0.5283203125
248,-0.06103515625,0.42724609375,-0.54931640625,-0.0400390625,-0.9033203125,0.52783203125
249,-0.1220703125,0.48828125,-0.54931640625,-0.04150390625,-0.90185546875,0.52294921875
250,-0.244140625,0.42724609375,-0.48828125,-0.0419921875,-0.9052734375,0.5234375
251,-0.3662109375,0.3662109375,-0.42724609375,-0.0419921875,-0.90283203125,0.52490234375
252,-0.54931640625,0.30517578125,-0.54931640625,-0.04150390625,-0.90576171875,0.5244140625
253,-0.1220703125,0.42724609375,-0.54931640625,-0.04296875,-0.90625,0.52685546875
254,-0.1220703125,0.30517578125,-0.6103515625,-0.03955078125,-0.9033203125,0.52734375
255,-0.1220703125,0.3662109375,-0.54931640625,-0.041015625,-0.90380859375,0.52392578125
256,-0.1220703125,0.30517578125,-0.54931640625,-0.04150390625,-0.90380859375,0.52587890625
257,-0.1220703125,0.244140625,-0.48828125,-0.041015625,-0.904296875,0.52783203125
258,-0.06103515625,0.3662109375,-0.54931640625,-0.03955078125,-0.90576171875,0.5244140625
259,0.0,0.48828125,-0.54931640625,-0.04052734375,-0.90673828125,0.52099609375
260,0.0,0.3662109375,-0.54931640625,-0.04248046875,-0.90283203125,0.525390625
261,-0.1220703125,0.18310546875,-0.6103515625,-0.04052734375,-0.9052734375,0.52783203125
262,-0.06103515625,0.42724609375,-0.6103515625,-0.04052734375,-0.9033203125,0.5283203125
263,0.06103515625,0.3662109375,-0.54931640625,-0.04150390625,-0.90185546875,0.5283203125
264,-0.1220703125,0.244140625,-0.48828125,-0.04443359375,-0.90380859375,0.5322265625
265,-0.18310546875,0.244140625,-0.48828125,-0.04052734375,-0.90576171875,0.52587890625
266,-0.18310546875,0.30517578125,-0.54931640625,-0.04296875,-0.90478515625,0.5283203125
267,-0.06103515625,0.3662109375,-0.6103515625,-0.0419921875,-0.90380859375,0.525390625
268,-0.06103515625,0.42724609375,-0.54931640625,-0.04248046875,-0.90478515625,0.5234375
269,-0.06103515625,0.3662109375,-0.48828125,-0.04150390625,-0.904296875,0.52490234375
270,0.06103515625,0.244140625,-0.42724609375,-0.041015625,-0.9033203125,0.529296875
271,0.0,0.3662109375,-0.48828125,-0.041015625,-0.904296875,0.5283203125
272,-0.06103515625,0.42724609375,-0.42724609375,-0.04052734375,-0.90283203125,0.5244140625
273,-0.06103515625,0.48828125,-0.48828125,-0.041015625,-0.9013671875,0.529296875
274,-0.18310546875,0.3662109375,-0.48828125,-0.041015625,-0.90380859375,0.5234375
275,-0.244140625,0.42724609375,-0.42724609375,-0.03955078125,-0.90380859375,0.52685546875
276,-0.3662109375,0.48828125,-0.54931640625,-0.04248046875,-0.90283203125,0.5283203125
277,-0.42724609375,0.48828125,-0.54931640625,-0.04052734375,-0.9033203125,0.52685546875
278,-0.54931640625,0.48828125,-0.54931640625,-0.041015625,-0.90234375,0.5244140625
279,-0.54931640625,0.54931640625,-0.48828125,-0.04248046875,-0.9033203125,0.52587890625
280,-0.42724609375,0.6103515625,-0.48828125,-0.0419921875,-0.9072265625,0.52294921875
281,-0.48828125,0.54931640625,-0.48828125,-0.041015625,-0.90234375,0.52783203125
282,-0.48828125,0.6103515625,-0.48828125,-0.04248046875,-0.90087890625,0.5283203125
283,-0.67138671875,0.67138671875,-0.42724609375,-0.0400390625,-0.90283203125,0.52490234375
284,-0.8544921875,0.732421875,-0.42724609375,-0.04248046875,-0.9033203125,0.52685546875
285,-1.28173828125,0.67138671875,-0.42724609375,-0.0419921875,-0.904296875,0.5263671875
286,-0.9765625,0.732421875,-0.3662109375,-0.04052734375,-0.90673828125,0.5234375
287,-0.9765625,0.67138671875,-0.42724609375,-0.04296875,-0.9033203125,0.5224609375
288,-0.91552734375,0.6103515625,-0.48828125,-0.0439453125,-0.904296875,0.51904296875
289,-0.79345703125,0.6103515625,-0.42724609375,-0.04296875,-0.90576171875,0.52197265625
290,-0.54931640625,0.6103515625,-0.42724609375,-0.041015625,-0.90380859375,0.52587890625
291,-0.6103515625,0.6103515625,-0.42724609375,-0.041015625,-0.90380859375,0.5244140625
292,-0.6103515625,0.54931640625,-0.42724609375,-0.04248046875,-0.90576171875,0.52392578125
293,-0.6103515625,0.6103515625,-0.42724609375,-0.041015625,-0.90673828125,0.52783203125
294,-0.6103515625,0.67138671875,-0.42724609375,-0.04296875,-0.90625,0.5234375
295,-0.48828125,0.67138671875,-0.42724609375,-0.0419921875,-0.9072265625,0.52294921875
296,-0.30517578125,0.6103515625,-0.42724609375,-0.041015625,-0.90478515625,0.52587890625
297,-0.6103515625,0.54931640625,-0.30517578125,-0.041015625,-0.90380859375,0.52294921875
298,-0.91552734375,0.54931640625,-0.30517578125,-0.04248046875,-0.904296875,0.5263671875
299,-0.9765625,0.48828125,-0.3662109375,-0.04296875,-0.90869140625,0.525390625
300,-0.42724609375,0.42724609375,-0.3662109375,-0.0400390625,-0.9052734375,0.52197265625
301,-0.54931640625,0.48828125,-0.48828125,-0.04345703125,-0.90478515625,0.52392578125
302,-0.67138671875,0.3662109375,-0.3662109375,-0.0419921875,-0.90673828125,0.5263671875
303,-0.30517578125,0.3662109375,-0.42724609375,-0.0419921875,-0.904296875,0.52392578125
304,-0.30517578125,0.42724609375,-0.3662109375,-0.0390625,-0.90625,0.5234375
305,-0.244140625,0.30517578125,-0.42724609375,-0.04052734375,-0.9052734375,0.52099609375
306,-0.06103515625,0.244140625,-0.42724609375,-0.044921875,-0.9033203125,0.5234375
307,0.0,0.244140625,-0.42724609375,-0.04345703125,-0.90478515625,0.52587890625
308,0.1220703125,0.244140625,-0.3662109375,-0.04052734375,-0.90625,0.5224609375
309,-0.06103515625,0.1220703125,-0.48828125,-0.041015625,-0.90283203125,0.5263671875
310,-0.18310546875,0.18310546875,-0.48828125,-0.0419921875,-0.904296875,0.5263671875
311,-0.18310546875,0.18310546875,-0.42724609375,-0.0419921875,-0.9072265625,0.52294921875
312,-0.54931640625,0.18310546875,-0.48828125,-0.0419921875,-0.90283203125,0.52294921875
313,-0.6103515625,0.244140625,-0.48828125,-0.0419921875,-0.908203125,0.52197265625
314,0.0,0.30517578125,-0.48828125,-0.0419921875,-0.9052734375,0.5234375
315,0.0,0.30517578125,-0.42724609375,-0.0419921875,-0.90478515625,0.52294921875
316,-0.1220703125,0.244140625,-0.48828125,-0.04248046875,-0.90380859375,0.52685546875
317,-0.244140625,0.244140625,-0.48828125,-0.0419921875,-0.904296875,0.52294921875
318,-0.30517578125,0.30517578125,-0.48828125,-0.04052734375,-0.90625,0.5224609375
319,-0.3662109375,0.244140625,-0.6103515625,-0.04248046875,-0.90673828125,0.52392578125
320,-0.3662109375,0.244140625,-0.54931640625,-0.04443359375,-0.90576171875,0.52392578125
321,-0.1220703125,0.30517578125,-0.48828125,-0.04345703125,-0.90234375,0.5244140625
322,-0.18310546875,0.244140625,-0.54931640625,-0.04248046875,-0.9052734375,0.52490234375
323,-0.18310546875,0.30517578125,-0.54931640625,-0.041015625,-0.904296875,0.52294921875
324,-0.30517578125,0.42724609375,-0.48828125,-0.04248046875,-0.90234375,0.52685546875
325,-1.220703125,0.30517578125,-0.54931640625,-0.0419921875,-0.9072265625,0.51953125
326,-0.3662109375,0.30517578125,-0.54931640625,-0.0400390625,-0.90625,0.52099609375
327,-0.1220703125,0.3662109375,-0.48828125,-0.04052734375,-0.90576171875,0.52099609375
328,0.0,0.30517578125,-0.48828125,-0.04296875,-0.90673828125,0.52099609375
329,-0.06103515625,0.18310546875,-0.54931640625,-0.04248046875,-0.904296875,0.5244140625
330,-0.06103515625,0.18310546875,-0.54931640625,-0.04150390625,-0.904296875,0.5263671875
331,-0.1220703125,0.1220703125,-0.48828125,-0.0400390625,-0.90576171875,0.52587890625
332,-0.1220703125,0.1220703125,-0.54931640625,-0.04052734375,-0.90576171875,0.52294921875
333,-0.06103515625,0.18310546875,-0.48828125,-0.0439453125,-0.90478515625,0.52587890625
334,-0.18310546875,0.30517578125,-0.54931640625,-0.04345703125,-0.90576171875,0.52392578125
335,-0.18310546875,0.244140625,-0.67138671875,-0.0419921875,-0.90576171875,0.52099609375
336,-0.1220703125,0.1220703125,-0.6103515625,-0.04345703125,-0.90380859375,0.5234375
337,-0.1220703125,0.18310546875,-0.48828125,-0.04443359375,-0.90673828125,0.5224609375
338,-0.06103515625,0.1220703125,-0.48828125,-0.0380859375,-0.90576171875,0.52197265625
339,0.0,0.1220703125,-0.48828125,-0.041015625,-0.9033203125,0.52587890625
340,0.06103515625,0.244140625,-0.48828125,-0.041015625,-0.90478515625,0.5224609375
341,0.1220703125,0.30517578125,-0.42724609375,-0.0419921875,-0.908203125,0.51904296875
342,0.1220703125,0.244140625,-0.3662109375,-0.041015625,-0.9052734375,0.51904296875
343,0.244140625,0.30517578125,-0.42724609375,-0.04150390625,-0.9052734375,0.5224609375
344,0.18310546875,0.30517578125,-0.3662109375,-0.0419921875,-0.90478515625,0.5244140625
345,0.0,0.30517578125,-0.48828125,-0.04296875,-0.90380859375,0.525390625
346,-0.1220703125,0.30517578125,-0.48828125,-0.041015625,-0.90478515625,0.525390625
347,-0.30517578125,0.30517578125,-0.54931640625,-0.04052734375,-0.90625,0.52490234375
348,-0.1220703125,0.3662109375,-0.42724609375,-0.04150390625,-0.90576171875,0.52587890625
349,-0.06103515625,0.244140625,-0.48828125,-0.03955078125,-0.90673828125,0.521484375
350,0.06103515625,0.3662109375,-0.54931640625,-0.041015625,-0.90576171875,0.52001953125
351,0.06103515625,0.42724609375,-0.6103515625,-0.0439453125,-0.9052734375,0.5234375
352,0.1220703125,0.3662109375,-0.54931640625,-0.041015625,-0.9033203125,0.52392578125
353,0.1220703125,0.42724609375,-0.54931640625,-0.04150390625,-0.90380859375,0.525390625
354,0.0,0.48828125,-0.48828125,-0.0419921875,-0.90478515625,0.5244140625
355,-0.06103515625,0.48828125,-0.48828125,-0.0400390625,-0.90380859375,0.5244140625
356,0.0,0.48828125,-0.48828125,-0.04150390625,-0.90478515625,0.52392578125
357,-0.18310546875,0.42724609375,-0.54931640625,-0.04150390625,-0.90380859375,0.5224609375
358,-0.1220703125,0.42724609375,-0.54931640625,-0.0390625,-0.90576171875,0.521484375
359,0.0,0.48828125,-0.54931640625,-0.0439453125,-0.90380859375,0.5234375
360,0.0,0.48828125,-0.48828125,-0.04248046875,-0.9033203125,0.52294921875
361,0.0,0.54931640625,-0.54931640625,-0.041015625,-0.90478515625,0.52587890625
362,-0.1220703125,0.54931640625,-0.54931640625,-0.04296875,-0.90576171875,0.5234375
363,-0.18310546875,0.54931640625,-0.54931640625,-0.04248046875,-0.9052734375,0.52001953125
364,-0.244140625,0.54931640625,-0.6103515625,-0.04052734375,-0.9072265625,0.52294921875
365,-0.244140625,0.54931640625,-0.48828125,-0.04150390625,-0.90576171875,0.5205078125
366,-0.244140625,0.48828125,-0.54931640625,-0.04296875,-0.90478515625,0.52197265625
367,-0.244140625,0.48828125,-0.54931640625,-0.04345703125,-0.90625,0.52099609375
368,-0.1220703125,0.48828125,-0.48828125,-0.04248046875,-0.9052734375,0.5244140625
369,-0.18310546875,0.48828125,-0.54931640625,-0.03955078125,-0.90380859375,0.5244140625
370,-0.244140625,0.42724609375,-0.48828125,-0.0400390625,-0.9052734375,0.52099609375
371,-0.1220703125,0.3662109375,-0.54931640625,-0.04052734375,-0.90576171875,0.5244140625
372,-0.06103515625,0.3662109375,-0.54931640625,-0.04052734375,-0.90625,0.5244140625
373,0.06103515625,0.244140625,-0.54931640625,-0.0439453125,-0.9052734375,0.5234375
374,0.1220703125,0.244140625,-0.48828125,-0.04248046875,-0.90576171875,0.5205078125
375,0.1220703125,0.244140625,-0.54931640625,-0.0419921875,-0.904296875,0.5205078125
376,0.1220703125,0.30517578125,-0.54931640625,-0.04248046875,-0.90625,0.521484375
377,0.1220703125,0.244140625,-0.54931640625,-0.041015625,-0.9072265625,0.52099609375
378,0.06103515625,0.244140625,-0.54931640625,-0.0419921875,-0.90478515625,0.52294921875
379,0.06103515625,0.30517578125,-0.54931640625,-0.04345703125,-0.90380859375,0.5234375
380,0.06103515625,0.18310546875,-0.54931640625,-0.04296875,-0.90576171875,0.52294921875
381,0.0,0.244140625,-0.48828125,-0.041015625,-0.9033203125,0.52490234375
382,0.0,0.244140625,-0.48828125,-0.0400390625,-0.90234375,0.52783203125
383,0.06103515625,0.1220703125,-0.48828125,-0.04052734375,-0.90576171875,0.52197265625
384,0.244140625,0.1220703125,-0.54931640625,-0.04150390625,-0.90625,0.521484375
385,0.3662109375,0.18310546875,-0.6103515625,-0.04248046875,-0.9033203125,0.52197265625
386,0.244140625,0.18310546875,-0.6103515625,-0.04052734375,-0.90478515625,0.5283203125
387,0.1220703125,0.06103515625,-0.48828125,-0.04052734375,-0.90673828125,0.52490234375
388,0.244140625,0.1220703125,-0.54931640625,-0.0400390625,-0.90478515625,0.5263671875
389,0.244140625,0.1220703125,-0.48828125,-0.04248046875,-0.9052734375,0.5263671875
390,0.18310546875,0.1220703125,-0.48828125,-0.0419921875,-0.90625,0.5224609375
391,0.1220703125,0.18310546875,-0.6103515625,-0.04150390625,-0.90234375,0.5234375
392,-0.1220703125,0.18310546875,-0.54931640625,-0.04296875,-0.90283203125,0.52490234375
393,-0.244140625,0.18310546875,-0.48828125,-0.04052734375,-0.9033203125,0.5263671875
394,-0.18310546875,0.30517578125,-0.48828125,-0.0419921875,-0.90478515625,0.52587890625
395,-0.244140625,0.244140625,-0.42724609375,-0.0419921875,-0.90625,0.521484375
396,-0.30517578125,0.244140625,-0.42724609375,-0.04296875,-0.90478515625,0.52490234375
397,-0.1220703125,0.244140625,-0.54931640625,-0.04052734375,-0.9072265625,0.52685546875
398,-0.06103515625,0.244140625,-0.54931640625,-0.0419921875,-0.9052734375,0.52294921875
399,-0.06103515625,0.30517578125,-0.48828125,-0.04150390625,-0.904296875,0.5263671875
400,-0.06103515625,0.30517578125,-0.48828125,-0.03955078125,-0.9033203125,0.52783203125
401,-0.1220703125,0.30517578125,-0.54931640625,-0.04052734375,-0.9052734375,0.525390625
402,-0.18310546875,0.30517578125,-0.54931640625,-0.04248046875,-0.90380859375,0.52490234375
403,-0.244140625,0.30517578125,-0.48828125,-0.0419921875,-0.90478515625,0.5234375
404,-0.18310546875,0.30517578125,-0.54931640625,-0.04150390625,-0.90625,0.521484375
405,-0.06103515625,0.30517578125,-0.54931640625,-0.0419921875,-0.90478515625,0.52685546875
406,-0.1220703125,0.3662109375,-0.54931640625,-0.0400390625,-0.9033203125,0.52490234375
407,-0.1220703125,0.3662109375,-0.48828125,-0.0390625,-0.90283203125,0.5244140625
408,-0.18310546875,0.30517578125,-0.54931640625,-0.0390625,-0.9033203125,0.52490234375
409,-0.30517578125,0.30517578125,-0.42724609375,-0.04150390625,-0.90380859375,0.52294921875
410,-0.18310546875,0.3662109375,-0.48828125,-0.0419921875,-0.904296875,0.52392578125
411,-0.244140625,0.30517578125,-0.54931640625,-0.041015625,-0.90625,0.52587890625
412,-0.1220703125,0.244140625,-0.54931640625,-0.04150390625,-0.90478515625,0.5224609375
413,-0.06103515625,0.244140625,-0.48828125,-0.044921875,-0.90576171875,0.52294921875
414,0.0,0.244140625,-0.48828125,-0.04296875,-0.9072265625,0.52294921875
415,0.18310546875,0.30517578125,-0.48828125,-0.04052734375,-0.9052734375,0.5234375
416,0.244140625,0.244140625,-0.48828125,-0.04248046875,-0.9052734375,0.5244140625
417,0.244140625,0.18310546875,-0.48828125,-0.041015625,-0.90576171875,0.525390625
418,0.18310546875,0.244140625,-0.42724609375,-0.04150390625,-0.90380859375,0.52587890625
419,0.06103515625,0.244140625,-0.42724609375,-0.0419921875,-0.90283203125,0.525390625
420,0.06103515625,0.18310546875,-0.42724609375,-0.04052734375,-0.90234375,0.52587890625
421,0.0,0.244140625,-0.42724609375,-0.04150390625,-0.904296875,0.52734375
422,-0.06103515625,0.244140625,-0.48828125,-0.0400390625,-0.90576171875,0.5263671875
423,-0.06103515625,0.1220703125,-0.48828125,-0.0400390625,-0.9052734375,0.5244140625
424,-0.244140625,0.18310546875,-0.42724609375,-0.0400390625,-0.9052734375,0.52392578125
425,-0.18310546875,0.244140625,-0.3662109375,-0.03955078125,-0.90673828125,0.5224609375
426,-0.18310546875,0.244140625,-0.54931640625,-0.0390625,-0.9052734375,0.52587890625
427,-0.18310546875,0.30517578125,-0.48828125,-0.03857421875,-0.90673828125,0.52490234375
428,-0.244140625,0.30517578125,-0.48828125,-0.041015625,-0.90478515625,0.52490234375
429,-0.1220703125,0.18310546875,-0.42724609375,-0.04296875,-0.9052734375,0.52490234375
430,0.0,0.30517578125,-0.48828125,-0.0419921875,-0.90625,0.52294921875
431,0.06103515625,0.30517578125,-0.48828125,-0.04150390625,-0.904296875,0.525390625
432,0.06103515625,0.30517578125,-0.3662109375,-0.04052734375,-0.90380859375,0.529296875
433,0.0,0.30517578125,-0.48828125,-0.04052734375,-0.9033203125,0.52685546875
434,-0.1220703125,0.42724609375,-0.48828125,-0.04052734375,-0.90380859375,0.52587890625
435,-0.244140625,0.42724609375,-0.42724609375,-0.04296875,-0.9033203125,0.52490234375
436,-0.42724609375,0.3662109375,-0.48828125,-0.037109375,-0.904296875,0.52490234375
437,-0.3662109375,0.3662109375,-0.42724609375,-0.041015625,-0.9072265625,0.5244140625
438,-0.244140625,0.3662109375,-0.48828125,-0.0419921875,-0.9072265625,0.5234375
439,-0.244140625,0.30517578125,-0.54931640625,-0.041015625,-0.9052734375,0.52490234375
440,-0.18310546875,0.30517578125,-0.42724609375,-0.041015625,-0.90576171875,0.52294921875
441,-0.1220703125,0.30517578125,-0.42724609375,-0.04052734375,-0.90576171875,0.52490234375
442,-0.1220703125,0.3662109375,-0.48828125,-0.04052734375,-0.9052734375,0.5234375
443,-0.18310546875,0.3662109375,-0.54931640625,-0.04296875,-0.90576171875,0.5224609375
444,-0.18310546875,0.42724609375,-0.54931640625,-0.04052734375,-0.9052734375,0.5244140625
445,0.0,0.3662109375,-0.42724609375,-0.04345703125,-0.90478515625,0.52392578125
446,-0.06103515625,0.244140625,-0.42724609375,-0.04248046875,-0.9072265625,0.52587890625
447,-0.06103515625,0.30517578125,-0.54931640625,-0.04248046875,-0.90625,0.52783203125
448,-0.18310546875,0.30517578125,-0.6103515625,-0.03955078125,-0.90576171875,0.52197265625
449,-0.18310546875,0.30517578125,-0.48828125,-0.0419921875,-0.90380859375,0.52294921875
450,-0.18310546875,0.3662109375,-0.42724609375,-0.041015625,-0.9052734375,0.52197265625
451,-0.1220703125,0.30517578125,-0.48828125,-0.041015625,-0.90576171875,0.525390625
452,-0.18310546875,0.30517578125,-0.54931640625,-0.04296875,-0.904296875,0.525390625
453,-0.18310546875,0.30517578125,-0.54931640625,-0.0400390625,-0.90380859375,0.5244140625
454,-0.1220703125,0.30517578125,-0.48828125,-0.03955078125,-0.9033203125,0.52685546875
455,0.0,0.3662109375,-0.42724609375,-0.04296875,-0.9052734375,0.52490234375
456,-0.06103515625,0.18310546875,-0.48828125,-0.0400390625,-0.90478515625,0.5224609375
457,-0.1220703125,0.30517578125,-0.48828125,-0.04248046875,-0.90478515625,0.52490234375
458,-0.18310546875,0.30517578125,-0.42724609375,-0.041015625,-0.904296875,0.5263671875
459,-0.1220703125,0.3662109375,-0.42724609375,-0.04150390625,-0.9052734375,0.5224609375
460,-0.06103515625,0.30517578125,-0.48828125,-0.04052734375,-0.904296875,0.5234375
461,-0.06103515625,0.30517578125,-0.54931640625,-0.04150390625,-0.90576171875,0.52392578125
462,0.0,0.30517578125,-0.48828125,-0.0419921875,-0.90673828125,0.52392578125
463,-0.1220703125,0.244140625,-0.48828125,-0.0419921875,-0.90478515625,0.5234375
464,-0.1220703125,0.30517578125,-0.48828125,-0.04248046875,-0.90380859375,0.5224609375
465,0.0,0.30517578125,-0.54931640625,-0.04052734375,-0.90478515625,0.5224609375
466,0.1220703125,0.244140625,-0.48828125,-0.0390625,-0.9033203125,0.52490234375
467,0.1220703125,0.244140625,-0.42724609375,-0.04150390625,-0.9033203125,0.52783203125
468,0.0,0.244140625,-0.54931640625,-0.04296875,-0.90576171875,0.525390625
469,-0.06103515625,0.244140625,-0.54931640625,-0.04345703125,-0.9072265625,0.52392578125
470,0.0,0.30517578125,-0.42724609375,-0.04052734375,-0.90478515625,0.525390625
471,0.0,0.244140625,-0.54931640625,-0.04052734375,-0.90283203125,0.52392578125
472,0.1220703125,0.244140625,-0.42724609375,-0.041015625,-0.90625,0.52197265625
473,0.18310546875,0.30517578125,-0.54931640625,-0.041015625,-0.9072265625,0.52197265625
474,0.0,0.244140625,-0.54931640625,-0.04052734375,-0.90576171875,0.5234375
475,0.0,0.30517578125,-0.42724609375,-0.03857421875,-0.90234375,0.5224609375
476,0.0,0.30517578125,-0.48828125,-0.041015625,-0.9013671875,0.5263671875
477,0.0,0.244140625,-0.48828125,-0.0400390625,-0.90478515625,0.5263671875
478,-0.06103515625,0.3662109375,-0.48828125,-0.04052734375,-0.90478515625,0.52490234375
479,-0.1220703125,0.3662109375,-0.48828125,-0.04296875,-0.90478515625,0.52587890625
480,-0.06103515625,0.3662109375,-0.48828125,-0.041015625,-0.904296875,0.525390625
481,-0.1220703125,0.30517578125,-0.48828125,-0.03955078125,-0.90283203125,0.525390625
482,-0.18310546875,0.3662109375,-0.48828125,-0.04296875,-0.9033203125,0.521484375
483,-0.18310546875,0.3662109375,-0.42724609375,-0.04052734375,-0.904296875,0.52685546875
484,-0.18310546875,0.42724609375,-0.54931640625,-0.03955078125,-0.904296875,0.52734375
485,-0.1220703125,0.3662109375,-0.48828125,-0.0400390625,-0.9052734375,0.52294921875
486,-0.1220703125,0.244140625,-0.54931640625,-0.04052734375,-0.90673828125,0.52197265625
487,0.06103515625,0.30517578125,-0.48828125,-0.041015625,-0.904296875,0.5244140625
488,0.06103515625,0.18310546875,-0.42724609375,-0.041015625,-0.9052734375,0.52490234375
489,0.1220703125,0.244140625,-0.54931640625,-0.0419921875,-0.9052734375,0.52685546875
490,0.1220703125,0.30517578125,-0.54931640625,-0.041015625,-0.90283203125,0.5244140625
491,0.0,0.30517578125,-0.54931640625,-0.04052734375,-0.90234375,0.52490234375
492,-0.06103515625,0.244140625,-0.54931640625,-0.04248046875,-0.90478515625,0.5234375
493,0.06103515625,0.244140625,-0.48828125,-0.04150390625,-0.90478515625,0.5263671875
494,0.0,0.18310546875,-0.54931640625,-0.04150390625,-0.90380859375,0.525390625
495,0.0,0.244140625,-0.54931640625,-0.041015625,-0.904296875,0.52685546875
496,0.06103515625,0.244140625,-0.48828125,-0.041015625,-0.9052734375,0.52099609375
497,-0.06103515625,0.244140625,-0.54931640625,-0.041015625,-0.90380859375,0.52392578125
498,-0.06103515625,0.30517578125,-0.54931640625,-0.04052734375,-0.9052734375,0.52734375
499,0.0,0.30517578125,-0.54931640625,-0.0419921875,-0.90283203125,0.5224609375
500,-0.1220703125,0.30517578125,-0.48828125,-0.04052734375,-0.90478515625,0.52587890625
501,-0.244140625,0.30517578125,-0.54931640625,-0.0390625,-0.90673828125,0.525390625
502,-0.18310546875,0.244140625,-0.54931640625,-0.0400390625,-0.90673828125,0.525390625
503,-0.06103515625,0.30517578125,-0.48828125,-0.0400390625,-0.90380859375,0.52587890625
504,-0.06103515625,0.244140625,-0.48828125,-0.04296875,-0.9072265625,0.52392578125
505,-0.1220703125,0.30517578125,-0.54931640625,-0.0419921875,-0.9052734375,0.52490234375
506,-0.1220703125,0.42724609375,-0.48828125,-0.041015625,-0.904296875,0.52734375
507,-0.244140625,0.30517578125,-0.42724609375,-0.0400390625,-0.90234375,0.52734375
508,-0.244140625,0.3662109375,-0.54931640625,-0.04052734375,-0.9033203125,0.5263671875
509,-0.244140625,0.3662109375,-0.6103515625,-0.041015625,-0.90625,0.52587890625
510,-0.30517578125,0.42724609375,-0.48828125,-0.0400390625,-0.90478515625,0.5263671875
511,-0.3662109375,0.3662109375,-0.48828125,-0.0390625,-0.904296875,0.5234375
512,-0.3662109375,0.3662109375,-0.6103515625,-0.0419921875,-0.90380859375,0.5234375
513,-0.3662109375,0.3662109375,-0.54931640625,-0.0400390625,-0.9072265625,0.52197265625
514,-0.18310546875,0.18310546875,-0.48828125,-0.0419921875,-0.9052734375,0.5263671875
515,-0.18310546875,0.244140625,-0.48828125,-0.04052734375,-0.90576171875,0.52294921875
516,0.0,0.30517578125,-0.48828125,-0.04052734375,-0.90673828125,0.5205078125
517,0.0,0.244140625,-0.54931640625,-0.041015625,-0.9072265625,0.52880859375
518,-0.1220703125,0.244140625,-0.54931640625,-0.041015625,-0.9052734375,0.52734375
519,-0.18310546875,0.30517578125,-0.42724609375,-0.041015625,-0.90283203125,0.52587890625
520,-0.30517578125,0.30517578125,-0.48828125,-0.04150390625,-0.90673828125,0.525390625
521,-0.3662109375,0.3662109375,-0.48828125,-0.04345703125,-0.904296875,0.5234375
522,-0.42724609375,0.30517578125,-0.48828125,-0.04052734375,-0.90478515625,0.52734375
523,-0.42724609375,0.30517578125,-0.54931640625,-0.0390625,-0.90234375,0.52490234375
524,-0.3662109375,0.244140625,-0.48828125,-0.0400390625,-0.9052734375,0.525390625
525,-0.244140625,0.3662109375,-0.42724609375,-0.04052734375,-0.90673828125,0.52587890625
526,-0.244140625,0.3662109375,-0.48828125,-0.041015625,-0.90576171875,0.52490234375
527,-0.244140625,0.42724609375,-0.48828125,-0.0400390625,-0.9052734375,0.5234375
528,-0.18310546875,0.48828125,-0.48828125,-0.03955078125,-0.9052734375,0.52734375
529,-0.1220703125,0.42724609375,-0.54931640625,-0.03955078125,-0.904296875,0.52392578125
530,-0.1220703125,0.30517578125,-0.48828125,-0.0390625,-0.9033203125,0.52197265625
531,-0.06103515625,0.244140625,-0.48828125,-0.0390625,-0.90380859375,0.5244140625
532,-0.18310546875,0.30517578125,-0.48828125,-0.0400390625,-0.90478515625,0.5224609375
533,-0.30517578125,0.30517578125,-0.54931640625,-0.04248046875,-0.904296875,0.5244140625
534,-0.42724609375,0.30517578125,-0.48828125,-0.04296875,-0.9052734375,0.52490234375
535,-0.244140625,0.30517578125,-0.48828125,-0.04150390625,-0.90673828125,0.521484375
536,-0.30517578125,0.42724609375,-0.54931640625,-0.04052734375,-0.9072265625,0.5234375
537,-0.3662109375,0.42724609375,-0.6103515625,-0.03955078125,-0.9052734375,0.5224609375
538,-0.79345703125,0.3662109375,-0.54931640625,-0.04052734375,-0.9033203125,0.52294921875
539,-0.67138671875,0.42724609375,-0.48828125,-0.04150390625,-0.90380859375,0.5234375
540,-0.1220703125,0.42724609375,-0.48828125,-0.04150390625,-0.9052734375,0.52294921875
541,-0.30517578125,0.3662109375,-0.54931640625,-0.0390625,-0.904296875,0.52685546875
542,-0.3662109375,0.3662109375,-0.54931640625,-0.0400390625,-0.90185546875,0.5283203125
543,-0.54931640625,0.3662109375,-0.54931640625,-0.04052734375,-0.90625,0.5234375
544,-1.03759765625,0.30517578125,-0.48828125,-0.041015625,-0.90625,0.5234375
545,-0.42724609375,0.3662109375,-0.48828125,-0.04052734375,-0.90478515625,0.52490234375
546,-0.18310546875,0.244140625,-0.54931640625,-0.041015625,-0.90673828125,0.5205078125
547,-0.244140625,0.18310546875,-0.48828125,-0.03955078125,-0.90673828125,0.5263671875
548,-0.3662109375,0.244140625,-0.54931640625,-0.04052734375,-0.90625,0.5234375
549,-0.3662109375,0.30517578125,-0.48828125,-0.0400390625,-0.904296875,0.52197265625
550,-0.3662109375,0.30517578125,-0.54931640625,-0.0390625,-0.90234375,0.52685546875
551,-0.79345703125,0.18310546875,-0.54931640625,-0.04150390625,-0.90673828125,0.525390625
552,-0.244140625,0.30517578125,-0.48828125,-0.0419921875,-0.904296875,0.52587890625
553,-0.06103515625,0.30517578125,-0.48828125,-0.0400390625,-0.904296875,0.525390625
554,-0.06103515625,0.30517578125,-0.48828125,-0.041015625,-0.90380859375,0.5244140625
555,-0.244140625,0.3662109375,-0.42724609375,-0.041015625,-0.9033203125,0.52392578125
556,-0.244140625,0.3662109375,-0.48828125,-0.0390625,-0.90625,0.52294921875
557,-0.244140625,0.3662109375,-0.48828125,-0.041015625,-0.90673828125,0.52294921875
558,-0.244140625,0.30517578125,-0.48828125,-0.0400390625,-0.9072265625,0.5234375
559,-0.18310546875,0.42724609375,-0.48828125,-0.03662109375,-0.90625,0.5224609375
560,-0.06103515625,0.48828125,-0.48828125,-0.03955078125,-0.9072265625,0.521484375
561,-0.1220703125,0.42724609375,-0.6103515625,-0.04150390625,-0.90576171875,0.52099609375
562,-0.1220703125,0.3662109375,-0.54931640625,-0.04296875,-0.90625,0.52294921875
563,-0.06103515625,0.3662109375,-0.48828125,-0.04296875,-0.90576171875,0.5224609375
564,0.06103515625,0.42724609375,-0.42724609375,-0.04150390625,-0.90478515625,0.52294921875
565,-0.1220703125,0.3662109375,-0.42724609375,-0.0390625,-0.9052734375,0.52392578125
566,-0.1220703125,0.3662109375,-0.42724609375,-0.04296875,-0.90625,0.52197265625
567,-0.1220703125,0.48828125,-0.48828125,-0.04296875,-0.90576171875,0.5205078125
568,-0.18310546875,0.42724609375,-0.48828125,-0.04150390625,-0.90576171875,0.51953125
569,-0.244140625,0.30517578125,-0.48828125,-0.04150390625,-0.90771484375,0.5234375
570,-0.30517578125,0.42724609375,-0.48828125,-0.0400390625,-0.90771484375,0.5205078125
571,-0.30517578125,0.48828125,-0.48828125,-0.041015625,-0.90380859375,0.525390625
572,-0.3662109375,0.42724609375,-0.48828125,-0.04052734375,-0.90380859375,0.52490234375
573,-0.30517578125,0.30517578125,-0.42724609375,-0.041015625,-0.90771484375,0.5244140625
574,-0.18310546875,0.30517578125,-0.42724609375,-0.0439453125,-0.90771484375,0.5234375
575,-0.18310546875,0.3662109375,-0.42724609375,-0.0419921875,-0.90380859375,0.52001953125
576,-0.1220703125,0.3662109375,-0.48828125,-0.041015625,-0.90576171875,0.52294921875
577,0.0,0.42724609375,-0.48828125,-0.0419921875,-0.9052734375,0.5224609375
578,0.0,0.3662109375,-0.6103515625,-0.04150390625,-0.90673828125,0.5224609375
579,0.06103515625,0.30517578125,-0.54931640625,-0.0400390625,-0.9072265625,0.52294921875
580,0.1220703125,0.42724609375,-0.54931640625,-0.04150390625,-0.90380859375,0.52490234375
581,0.1220703125,0.30517578125,-0.54931640625,-0.0400390625,-0.90380859375,0.5234375
582,0.0,0.30517578125,-0.3662109375,-0.04052734375,-0.9052734375,0.5224609375
583,-0.1220703125,0.3662109375,-0.42724609375,-0.04150390625,-0.90625,0.5224609375
584,-0.1220703125,0.30517578125,-0.42724609375,-0.0419921875,-0.90478515625,0.52490234375
585,-0.18310546875,0.244140625,-0.48828125,-0.04296875,-0.90576171875,0.52392578125
586,-0.18310546875,0.30517578125,-0.48828125,-0.0419921875,-0.90673828125,0.52294921875
587,-0.1220703125,0.42724609375,-0.54931640625,-0.04052734375,-0.9052734375,0.5234375
588,-0.06103515625,0.30517578125,-0.48828125,-0.0400390625,-0.90380859375,0.52587890625
589,-0.1220703125,0.244140625,-0.42724609375,-0.0419921875,-0.90576171875,0.52392578125
590,0.0,0.244140625,-0.3662109375,-0.0419921875,-0.90771484375,0.5244140625
591,-0.06103515625,0.244140625,-0.42724609375,-0.04296875,-0.90576171875,0.52294921875
592,-0.06103515625,0.18310546875,-0.48828125,-0.0419921875,-0.9052734375,0.5205078125
593,0.06103515625,0.18310546875,-0.54931640625,-0.041015625,-0.90625,0.5205078125
594,0.06103515625,0.18310546875,-0.54931640625,-0.04150390625,-0.90673828125,0.52099609375
595,0.0,0.244140625,-0.48828125,-0.03857421875,-0.90576171875,0.52392578125
596,0.1220703125,0.244140625,-0.48828125,-0.0419921875,-0.9072265625,0.52294921875
597,0.244140625,0.18310546875,-0.48828125,-0.04150390625,-0.9052734375,0.52099609375
598,0.18310546875,0.1220703125,-0.54931640625,-0.0419921875,-0.904296875,0.5244140625
599,0.1220703125,0.18310546875,-0.54931640625,-0.03955078125,-0.9072265625,0.52587890625
600,0.06103515625,0.244140625,-0.48828125,-0.04150390625,-0.90771484375,0.5244140625
601,0.06103515625,0.18310546875,-0.48828125,-0.03955078125,-0.904296875,0.5234375
602,0.0,0.244140625,-0.42724609375,-0.04052734375,-0.90234375,0.521484375
603,-0.1220703125,0.244140625,-0.42724609375,-0.041015625,-0.9052734375,0.52099609375
604,-0.06103515625,0.244140625,-0.42724609375,-0.04248046875,-0.90576171875,0.5263671875
605,-0.1220703125,0.30517578125,-0.48828125,-0.0419921875,-0.904296875,0.52392578125
606,-0.18310546875,0.244140625,-0.48828125,-0.03857421875,-0.90576171875,0.52490234375
607,-0.06103515625,0.244140625,-0.48828125,-0.04052734375,-0.9052734375,0.52490234375
608,-0.06103515625,0.244140625,-0.48828125,-0.04150390625,-0.90478515625,0.5224609375
609,-0.1220703125,0.30517578125,-0.42724609375,-0.04150390625,-0.90478515625,0.52294921875
610,-0.06103515625,0.244140625,-0.48828125,-0.0390625,-0.90673828125,0.52490234375
611,-0.06103515625,0.244140625,-0.48828125,-0.04150390625,-0.904296875,0.5234375
612,0.0,0.3662109375,-0.48828125,-0.0400390625,-0.9033203125,0.5263671875
613,-0.06103515625,0.3662109375,-0.54931640625,-0.0419921875,-0.90673828125,0.525390625
614,-0.1220703125,0.3662109375,-0.42724609375,-0.0419921875,-0.90673828125,0.5244140625
615,-0.06103515625,0.3662109375,-0.42724609375,-0.04248046875,-0.9052734375,0.5234375
616,0.06103515625,0.30517578125,-0.48828125,-0.041015625,-0.90380859375,0.52197265625
617,0.06103515625,0.30517578125,-0.48828125,-0.04052734375,-0.9033203125,0.5244140625
618,0.0,0.3662109375,-0.48828125,-0.0400390625,-0.904296875,0.52294921875
619,-0.06103515625,0.3662109375,-0.54931640625,-0.04052734375,-0.90576171875,0.52099609375
620,-0.06103515625,0.3662109375,-0.54931640625,-0.04052734375,-0.904296875,0.52587890625
621,-0.1220703125,0.30517578125,-0.48828125,-0.0400390625,-0.90478515625,0.525390625
622,-0.1220703125,0.30517578125,-0.48828125,-0.03955078125,-0.90576171875,0.52392578125
623,-0.244140625,0.42724609375,-0.48828125,-0.041015625,-0.90625,0.52197265625
624,-0.244140625,0.30517578125,-0.54931640625,-0.04052734375,-0.9033203125,0.52392578125
625,-0.18310546875,0.30517578125,-0.54931640625,-0.04150390625,-0.90673828125,0.5185546875
626,-0.1220703125,0.42724609375,-0.54931640625,-0.04052734375,-0.90478515625,0.51953125
627,-0.1220703125,0.30517578125,-0.54931640625,-0.0400390625,-0.90478515625,0.52392578125
628,-0.06103515625,0.244140625,-0.54931640625,-0.0380859375,-0.90576171875,0.5234375
629,-0.06103515625,0.3662109375,-0.54931640625,-0.041015625,-0.90625,0.52392578125
630,0.0,0.3662109375,-0.48828125,-0.041015625,-0.9033203125,0.52685546875
631,0.0,0.3662109375,-0.48828125,-0.03955078125,-0.90478515625,0.525390625
632,-0.06103515625,0.30517578125,-0.48828125,-0.0400390625,-0.90625,0.5244140625
633,0.0,0.3662109375,-0.48828125,-0.0400390625,-0.9052734375,0.52197265625
634,0.0,0.42724609375,-0.54931640625,-0.04296875,-0.90380859375,0.52490234375
635,-0.1220703125,0.42724609375,-0.54931640625,-0.04150390625,-0.904296875,0.525390625
636,-0.1220703125,0.30517578125,-0.6103515625,-0.0419921875,-0.90673828125,0.5244140625
637,-0.06103515625,0.30517578125,-0.6103515625,-0.0400390625,-0.90478515625,0.525390625
638,0.06103515625,0.30517578125,-0.48828125,-0.03759765625,-0.90380859375,0.5234375
639,0.06103515625,0.18310546875,-0.42724609375,-0.041015625,-0.90673828125,0.5234375
640,0.1220703125,0.3662109375,-0.48828125,-0.041015625,-0.908203125,0.517578125
641,0.1220703125,0.244140625,-0.48828125,-0.04052734375,-0.9052734375,0.525390625
642,0.1220703125,0.30517578125,-0.54931640625,-0.041015625,-0.90478515625,0.52392578125
643,0.1220703125,0.30517578125,-0.54931640625,-0.0419921875,-0.904296875,0.52294921875
644,0.18310546875,0.30517578125,-0.42724609375,-0.03955078125,-0.90478515625,0.521484375
645,0.18310546875,0.244140625,-0.48828125,-0.0390625,-0.90478515625,0.5205078125
646,0.1220703125,0.244140625,-0.54931640625,-0.03955078125,-0.90625,0.52734375
647,-0.06103515625,0.30517578125,-0.42724609375,-0.041015625,-0.90625,0.52587890625
648,-0.06103515625,0.18310546875,-0.48828125,-0.0419921875,-0.90625,0.52685546875
649,0.0,0.18310546875,-0.54931640625,-0.0400390625,-0.90576171875,0.52490234375
650,0.06103515625,0.244140625,-0.54931640625,-0.041015625,-0.9033203125,0.52490234375
651,0.0,0.30517578125,-0.54931640625,-0.041015625,-0.9052734375,0.52294921875
652,-0.06103515625,0.30517578125,-0.54931640625,-0.03955078125,-0.90478515625,0.5244140625
653,0.06103515625,0.244140625,-0.42724609375,-0.0400390625,-0.90478515625,0.52294921875
654,0.06103515625,0.18310546875,-0.42724609375,-0.04150390625,-0.90380859375,0.5244140625
655,0.1220703125,0.244140625,-0.48828125,-0.0380859375,-0.90576171875,0.52197265625
656,0.18310546875,0.244140625,-0.54931640625,-0.041015625,-0.9072265625,0.5185546875
657,0.1220703125,0.18310546875,-0.48828125,-0.04150390625,-0.90234375,0.52734375
658,0.18310546875,0.18310546875,-0.48828125,-0.041015625,-0.90380859375,0.52783203125
659,0.18310546875,0.30517578125,-0.42724609375,-0.0380859375,-0.90576171875,0.525390625
660,0.244140625,0.30517578125,-0.48828125,-0.04052734375,-0.90625,0.5244140625
661,0.18310546875,0.244140625,-0.42724609375,-0.04150390625,-0.90234375,0.52685546875
662,0.06103515625,0.244140625,-0.48828125,-0.04052734375,-0.9033203125,0.52734375
663,-0.1220703125,0.244140625,-0.48828125,-0.0400390625,-0.90478515625,0.52587890625
664,-0.18310546875,0.18310546875,-0.48828125,-0.03857421875,-0.904296875,0.52685546875
665,0.0,0.18310546875,-0.48828125,-0.03955078125,-0.9052734375,0.5224609375
666,0.06103515625,0.18310546875,-0.54931640625,-0.04150390625,-0.904296875,0.521484375
667,0.0,0.244140625,-0.42724609375,-0.0400390625,-0.9052734375,0.5263671875
668,-0.1220703125,0.18310546875,-0.48828125,-0.04052734375,-0.90478515625,0.525390625
669,0.06103515625,0.244140625,-0.54931640625,-0.0400390625,-0.9033203125,0.52734375
670,0.06103515625,0.30517578125,-0.48828125,-0.03857421875,-0.9052734375,0.52392578125
671,0.1220703125,0.30517578125,-0.48828125,-0.0400390625,-0.904296875,0.5263671875
672,0.244140625,0.30517578125,-0.42724609375,-0.03955078125,-0.90283203125,0.525390625
673,0.1220703125,0.30517578125,-0.48828125,-0.03955078125,-0.90625,0.525390625
674,0.0,0.244140625,-0.42724609375,-0.03955078125,-0.90380859375,0.5263671875
675,-0.06103515625,0.30517578125,-0.48828125,-0.04052734375,-0.90478515625,0.5234375
676,0.0,0.30517578125,-0.54931640625,-0.041015625,-0.90625,0.52587890625
677,-0.244140625,0.244140625,-0.54931640625,-0.04150390625,-0.9033203125,0.52490234375
678,-0.1220703125,0.30517578125,-0.54931640625,-0.0419921875,-0.9033203125,0.5224609375
679,-0.06103515625,0.3662109375,-0.48828125,-0.041015625,-0.904296875,0.525390625
680,-0.18310546875,0.30517578125,-0.54931640625,-0.04296875,-0.90576171875,0.52685546875
681,-0.18310546875,0.18310546875,-0.48828125,-0.04150390625,-0.9033203125,0.5234375
682,-0.06103515625,0.18310546875,-0.42724609375,-0.04052734375,-0.904296875,0.5234375
683,0.06103515625,0.18310546875,-0.3662109375,-0.04150390625,-0.90673828125,0.5234375
684,0.0,0.244140625,-0.48828125,-0.041015625,-0.90380859375,0.525390625
685,0.0,0.244140625,-0.48828125,-0.0400390625,-0.90478515625,0.52587890625
686,0.0,0.30517578125,-0.54931640625,-0.04052734375,-0.90380859375,0.5283203125
687,-0.06103515625,0.30517578125,-0.42724609375,-0.041015625,-0.90380859375,0.5302734375
688,-0.1220703125,0.244140625,-0.42724609375,-0.0390625,-0.90576171875,0.5263671875
689,-0.06103515625,0.30517578125,-0.48828125,-0.037109375,-0.904296875,0.5244140625
690,-0.06103515625,0.3662109375,-0.48828125,-0.0390625,-0.90478515625,0.52392578125
691,-0.1220703125,0.30517578125,-0.48828125,-0.0390625,-0.90380859375,0.52587890625
692,-0.18310546875,0.30517578125,-0.42724609375,-0.041015625,-0.90283203125,0.52734375
693,-0.18310546875,0.30517578125,-0.48828125,-0.03955078125,-0.904296875,0.52783203125
694,-0.18310546875,0.3662109375,-0.42724609375,-0.03759765625,-0.90478515625,0.5234375
695,-0.1220703125,0.42724609375,-0.42724609375,-0.03955078125,-0.90478515625,0.529296875
696,-0.18310546875,0.3662109375,-0.42724609375,-0.04052734375,-0.904296875,0.5263671875
697,-0.244140625,0.30517578125,-0.42724609375,-0.0390625,-0.90576171875,0.52392578125
698,-0.18310546875,0.244140625,-0.48828125,-0.03955078125,-0.9052734375,0.5263671875
699,-0.244140625,0.30517578125,-0.48828125,-0.04052734375,-0.9033203125,0.52685546875
700,-0.30517578125,0.30517578125,-0.48828125,-0.041015625,-0.9052734375,0.5263671875
701,-0.30517578125,0.3662109375,-0.54931640625,-0.0400390625,-0.904296875,0.525390625
702,-0.30517578125,0.42724609375,-0.54931640625,-0.0390625,-0.90478515625,0.5244140625
703,-0.3662109375,0.3662109375,-0.48828125,-0.04052734375,-0.904296875,0.5224609375
704,-0.3662109375,0.42724609375,-0.48828125,-0.0400390625,-0.90380859375,0.5234375
705,-0.3662109375,0.3662109375,-0.48828125,-0.041015625,-0.90380859375,0.52490234375
706,-0.30517578125,0.3662109375,-0.42724609375,-0.04248046875,-0.90380859375,0.52294921875
707,-0.244140625,0.42724609375,-0.48828125,-0.03955078125,-0.90576171875,0.52099609375
708,-0.18310546875,0.42724609375,-0.48828125,-0.0419921875,-0.90478515625,0.52197265625
709,-0.06103515625,0.42724609375,-0.48828125,-0.03857421875,-0.90283203125,0.52392578125
710,0.0,0.42724609375,-0.42724609375,-0.0380859375,-0.9033203125,0.525390625
711,0.0,0.42724609375,-0.42724609375,-0.04052734375,-0.90478515625,0.5234375
712,-0.18310546875,0.42724609375,-0.54931640625,-0.041015625,-0.90625,0.5244140625
713,-0.244140625,0.3662109375,-0.54931640625,-0.041015625,-0.9033203125,0.5244140625
714,-0.18310546875,0.42724609375,-0.48828125,-0.04052734375,-0.90283203125,0.5224609375
715,-0.18310546875,0.42724609375,-0.54931640625,-0.0390625,-0.904296875,0.5234375
716,-0.1220703125,0.42724609375,-0.48828125,-0.03955078125,-0.90625,0.52685546875
717,-0.1220703125,0.48828125,-0.48828125,-0.04443359375,-0.9052734375,0.52783203125
718,-0.18310546875,0.42724609375,-0.54931640625,-0.04150390625,-0.904296875,0.52294921875
719,-0.18310546875,0.42724609375,-0.48828125,-0.0400390625,-0.90478515625,0.5224609375
720,-0.1220703125,0.42724609375,-0.42724609375,-0.0419921875,-0.90478515625,0.5263671875
721,-0.06103515625,0.48828125,-0.42724609375,-0.04150390625,-0.90478515625,0.52685546875
722,-0.1220703125,0.48828125,-0.48828125,-0.04052734375,-0.90576171875,0.52587890625
723,-0.18310546875,0.3662109375,-0.48828125,-0.0400390625,-0.90478515625,0.521484375
724,-0.1220703125,0.3662109375,-0.48828125,-0.04150390625,-0.9052734375,0.5244140625
725,-0.18310546875,0.3662109375,-0.54931640625,-0.0390625,-0.904296875,0.525390625
726,-0.18310546875,0.3662109375,-0.48828125,-0.037109375,-0.9033203125,0.5263671875
727,-0.244140625,0.48828125,-0.42724609375,-0.04052734375,-0.90478515625,0.52490234375
728,-0.244140625,0.48828125,-0.42724609375,-0.041015625,-0.90625,0.5244140625
729,-0.18310546875,0.3662109375,-0.54931640625,-0.0400390625,-0.9072265625,0.52587890625
730,-0.30517578125,0.48828125,-0.48828125,-0.041015625,-0.90380859375,0.52685546875
731,-0.42724609375,0.54931640625,-0.42724609375,-0.04296875,-0.90478515625,0.52490234375
732,-0.42724609375,0.42724609375,-0.54931640625,-0.0400390625,-0.90478515625,0.5263671875
733,-0.3662109375,0.3662109375,-0.48828125,-0.0400390625,-0.904296875,0.5234375
734,-0.30517578125,0.42724609375,-0.48828125,-0.0400390625,-0.90478515625,0.521484375
735,-0.1220703125,0.42724609375,-0.48828125,-0.04052734375,-0.9052734375,0.5224609375
736,-0.06103515625,0.42724609375,-0.42724609375,-0.04150390625,-0.90576171875,0.525390625
737,0.0,0.3662109375,-0.48828125,-0.04150390625,-0.90283203125,0.52734375
738,0.18310546875,0.42724609375,-0.54931640625,-0.04052734375,-0.90771484375,0.5205078125
739,0.06103515625,0.42724609375,-0.54931640625,-0.0419921875,-0.90478515625,0.52685546875
740,-0.1220703125,0.3662109375,-0.48828125,-0.041015625,-0.9033203125,0.52587890625
741,-0.18310546875,0.42724609375,-0.48828125,-0.0419921875,-0.9052734375,0.52734375
742,-0.244140625,0.3662109375,-0.48828125,-0.041015625,-0.904296875,0.5263671875
743,-0.30517578125,0.3662109375,-0.48828125,-0.04052734375,-0.90283203125,0.52783203125
744,-0.3662109375,0.3662109375,-0.48828125,-0.03955078125,-0.9052734375,0.52490234375
745,-0.3662109375,0.30517578125,-0.42724609375,-0.0400390625,-0.90576171875,0.521484375
746,-0.244140625,0.30517578125,-0.42724609375,-0.04052734375,-0.90478515625,0.525390625
747,-0.06103515625,0.42724609375,-0.42724609375,-0.041015625,-0.90576171875,0.52490234375
748,-0.06103515625,0.42724609375,-0.3662109375,-0.0400390625,-0.90478515625,0.52392578125
749,-0.06103515625,0.30517578125,-0.3662109375,-0.04052734375,-0.90625,0.52197265625
750,0.06103515625,0.3662109375,-0.42724609375,-0.04150390625,-0.90625,0.51904296875
751,-0.06103515625,0.3662109375,-0.3662109375,-0.0400390625,-0.90478515625,0.5244140625
752,-0.06103515625,0.30517578125,-0.3662109375,-0.03955078125,-0.9052734375,0.5224609375
753,-0.06103515625,0.30517578125,-0.3662109375,-0.03857421875,-0.9033203125,0.525390625
754,0.0,0.42724609375,-0.42724609375,-0.04150390625,-0.904296875,0.52490234375
755,0.06103515625,0.3662109375,-0.42724609375,-0.04052734375,-0.904296875,0.525390625
756,0.1220703125,0.30517578125,-0.42724609375,-0.0419921875,-0.90234375,0.525390625
757,-0.06103515625,0.3662109375,-0.48828125,-0.04150390625,-0.904296875,0.525390625
758,-0.18310546875,0.30517578125,-0.48828125,-0.04052734375,-0.90673828125,0.52392578125
759,-0.18310546875,0.3662109375,-0.54931640625,-0.041015625,-0.90185546875,0.5234375
760,-0.30517578125,0.30517578125,-0.48828125,-0.0400390625,-0.90185546875,0.529296875
761,-0.42724609375,0.30517578125,-0.48828125,-0.0400390625,-0.90185546875,0.5263671875
762,-0.48828125,0.30517578125,-0.48828125,-0.03955078125,-0.9033203125,0.525390625
763,-0.6103515625,0.3662109375,-0.48828125,-0.041015625,-0.90380859375,0.5224609375
764,-0.67138671875,0.3662109375,-0.48828125,-0.0400390625,-0.90478515625,0.52392578125
765,-0.8544921875,0.42724609375,-0.42724609375,-0.0400390625,-0.9052734375,0.5244140625
766,-0.67138671875,0.48828125,-0.48828125,-0.041015625,-0.90576171875,0.52294921875
767,-0.6103515625,0.42724609375,-0.54931640625,-0.0400390625,-0.9052734375,0.5244140625
768,-0.48828125,0.42724609375,-0.48828125,-0.041015625,-0.90673828125,0.525390625
769,-0.42724609375,0.48828125,-0.54931640625,-0.04248046875,-0.90673828125,0.52197265625
770,-0.30517578125,0.3662109375,-0.48828125,-0.0419921875,-0.90576171875,0.52099609375
771,-0.06103515625,0.30517578125,-0.48828125,-0.04052734375,-0.904296875,0.52490234375
772,-0.06103515625,0.30517578125,-0.54931640625,-0.04150390625,-0.90380859375,0.5224609375
773,-0.1220703125,0.3662109375,-0.67138671875,-0.0419921875,-0.90380859375,0.5244140625
774,-0.244140625,0.42724609375,-0.6103515625,-0.0390625,-0.90380859375,0.52734375
775,-0.30517578125,0.3662109375,-0.48828125,-0.0419921875,-0.90625,0.525390625
776,-0.42724609375,0.30517578125,-0.54931640625,-0.04052734375,-0.904296875,0.52099609375
777,-0.42724609375,0.42724609375,-0.42724609375,-0.0390625,-0.9052734375,0.5224609375
778,-0.54931640625,0.3662109375,-0.42724609375,-0.0400390625,-0.90576171875,0.5224609375
779,-0.48828125,0.42724609375,-0.3662109375,-0.04052734375,-0.90380859375,0.52587890625
780,-0.48828125,0.3662109375,-0.42724609375,-0.03955078125,-0.9052734375,0.52294921875
781,-0.42724609375,0.3662109375,-0.3662109375,-0.041015625,-0.90625,0.52001953125
782,-0.30517578125,0.42724609375,-0.42724609375,-0.04052734375,-0.90283203125,0.52294921875
783,-0.3662109375,0.3662109375,-0.48828125,-0.0390625,-0.9033203125,0.5224609375
784,-0.30517578125,0.3662109375,-0.42724609375,-0.04150390625,-0.9052734375,0.52197265625
785,-0.244140625,0.3662109375,-0.42724609375,-0.041015625,-0.90673828125,0.52099609375
786,-0.06103515625,0.30517578125,-0.48828125,-0.04248046875,-0.90478515625,0.525390625
787,-0.1220703125,0.244140625,-0.48828125,-0.04248046875,-0.9052734375,0.52294921875
788,-0.18310546875,0.30517578125,-0.54931640625,-0.041015625,-0.9052734375,0.521484375
789,0.0,0.30517578125,-0.48828125,-0.04345703125,-0.90576171875,0.52294921875
790,-0.06103515625,0.244140625,-0.48828125,-0.04052734375,-0.90673828125,0.52294921875
791,-0.18310546875,0.1220703125,-0.48828125,-0.0400390625,-0.90478515625,0.52294921875
792,-0.244140625,0.18310546875,-0.48828125,-0.041015625,-0.9072265625,0.52294921875
793,-0.18310546875,0.244140625,-0.54931640625,-0.04296875,-0.9052734375,0.52294921875
794,-0.18310546875,0.18310546875,-0.48828125,-0.04052734375,-0.9033203125,0.52197265625
795,-0.1220703125,0.18310546875,-0.3662109375,-0.0400390625,-0.90478515625,0.5224609375
796,-0.18310546875,0.244140625,-0.42724609375,-0.0400390625,-0.904296875,0.52490234375
797,-0.06103515625,0.30517578125,-0.3662109375,-0.0419921875,-0.9072265625,0.5205078125
798,-0.06103515625,0.30517578125,-0.48828125,-0.041015625,-0.90625,0.52587890625
799,-0.244140625,0.244140625,-0.54931640625,-0.03955078125,-0.90576171875,0.521484375
800,-0.30517578125,0.244140625,-0.42724609375,-0.04296875,-0.9033203125,0.5244140625
801,-0.42724609375,0.42724609375,-0.42724609375,-0.04150390625,-0.90380859375,0.5224609375
802,-0.6103515625,0.48828125,-0.48828125,-0.041015625,-0.9072265625,0.52001953125
803,-0.67138671875,0.42724609375,-0.54931640625,-0.0390625,-0.90283203125,0.52978515625
804,-0.79345703125,0.3662109375,-0.54931640625,-0.03857421875,-0.90625,0.5244140625
805,-0.79345703125,0.3662109375,-0.54931640625,-0.04248046875,-0.908203125,0.51806640625
806,-0.6103515625,0.42724609375,-0.54931640625,-0.04345703125,-0.904296875,0.5234375
807,-0.79345703125,0.42724609375,-0.48828125,-0.04052734375,-0.90771484375,0.52197265625
808,-0.54931640625,0.54931640625,-0.48828125,-0.041015625,-0.9052734375,0.52001953125
809,-0.3662109375,0.54931640625,-0.54931640625,-0.0439453125,-0.90673828125,0.5205078125
810,-0.3662109375,0.48828125,-0.54931640625,-0.04248046875,-0.90625,0.52490234375
811,-0.42724609375,0.42724609375,-0.6103515625,-0.04248046875,-0.90869140625,0.52197265625
812,-0.244140625,0.42724609375,-0.6103515625,-0.0400390625,-0.9072265625,0.52197265625
813,-0.18310546875,0.48828125,-0.54931640625,-0.041015625,-0.90380859375,0.52099609375
814,-0.30517578125,0.6103515625,-0.48828125,-0.03955078125,-0.90576171875,0.5205078125
815,-0.1220703125,0.6103515625,-0.48828125,-0.04052734375,-0.9052734375,0.5205078125
816,0.06103515625,0.54931640625,-0.54931640625,-0.0419921875,-0.9033203125,0.52294921875
817,0.06103515625,0.42724609375,-0.6103515625,-0.04052734375,-0.90478515625,0.51904296875
818,-0.06103515625,0.54931640625,-0.54931640625,-0.0419921875,-0.908203125,0.52001953125
819,0.0,0.67138671875,-0.54931640625,-0.04150390625,-0.9052734375,0.52392578125
820,0.0,0.6103515625,-0.54931640625,-0.0419921875,-0.90478515625,0.525390625
821,-0.06103515625,0.54931640625,-0.48828125,-0.04150390625,-0.90625,0.52099609375
822,-0.244140625,0.6103515625,-0.54931640625,-0.041015625,-0.90283203125,0.5234375
823,-0.3662109375,0.6103515625,-0.6103515625,-0.04052734375,-0.904296875,0.5244140625
824,-0.732421875,0.42724609375,-0.48828125,-0.04052734375,-0.90234375,0.52490234375
825,-1.28173828125,0.48828125,-0.54931640625,-0.04150390625,-0.90625,0.52294921875
826,-0.67138671875,0.3662109375,-0.48828125,-0.041015625,-0.9072265625,0.521484375
827,-0.79345703125,0.42724609375,-0.48828125,-0.04296875,-0.90673828125,0.51953125
828,-1.03759765625,0.3662109375,-0.54931640625,-0.04150390625,-0.90478515625,0.521484375
829,-0.91552734375,0.30517578125,-0.48828125,-0.04052734375,-0.9072265625,0.51953125
830,-0.48828125,0.30517578125,-0.54931640625,-0.03955078125,-0.90673828125,0.517578125
831,-0.42724609375,0.244140625,-0.48828125,-0.041015625,-0.90771484375,0.51953125
832,-0.244140625,0.244140625,-0.42724609375,-0.04296875,-0.908203125,0.5205078125
833,-0.1220703125,0.18310546875,-0.3662109375,-0.04443359375,-0.90625,0.5205078125
834,-0.18310546875,0.18310546875,-0.3662109375,-0.04345703125,-0.9072265625,0.51953125
835,-0.18310546875,0.244140625,-0.42724609375,-0.04052734375,-0.904296875,0.52392578125
836,-0.244140625,0.18310546875,-0.3662109375,-0.0400390625,-0.90478515625,0.52197265625
837,-0.3662109375,0.18310546875,-0.30517578125,-0.03955078125,-0.90625,0.52197265625
838,-0.67138671875,0.30517578125,-0.42724609375,-0.03955078125,-0.90625,0.52587890625
839,-0.79345703125,0.244140625,-0.3662109375,-0.0419921875,-0.9052734375,0.5205078125
840,-1.0986328125,0.06103515625,-0.30517578125,-0.0400390625,-0.90869140625,0.5205078125
841,-0.9765625,0.3662109375,-0.3662109375,-0.0419921875,-0.90478515625,0.5205078125
842,-1.15966796875,0.244140625,-0.30517578125,-0.04052734375,-0.90625,0.52099609375
843,-1.220703125,0.244140625,-0.3662109375,-0.0390625,-0.908203125,0.5205078125
844,-1.03759765625,0.3662109375,-0.3662109375,-0.0419921875,-0.9052734375,0.52294921875
845,-1.220703125,0.244140625,-0.3662109375,-0.03955078125,-0.9072265625,0.517578125
846,-1.03759765625,0.54931640625,-0.30517578125,-0.0400390625,-0.9091796875,0.5146484375
847,-1.15966796875,0.48828125,-0.3662109375,-0.04150390625,-0.90869140625,0.5205078125
848,-1.15966796875,0.54931640625,-0.42724609375,-0.04052734375,-0.90966796875,0.51953125
849,-1.15966796875,0.54931640625,-0.30517578125,-0.04150390625,-0.90869140625,0.52197265625
850,-1.3427734375,0.48828125,-0.244140625,-0.04248046875,-0.90576171875,0.5224609375
851,-1.220703125,0.42724609375,-0.30517578125,-0.0419921875,-0.9052734375,0.52099609375
852,-1.40380859375,0.3662109375,-0.3662109375,-0.04150390625,-0.90478515625,0.5244140625
853,-1.5869140625,0.3662109375,-0.18310546875,-0.0439453125,-0.9052734375,0.52001953125
854,-1.5869140625,0.3662109375,-0.244140625,-0.04296875,-0.9072265625,0.51513671875
855,-1.40380859375,0.30517578125,-0.30517578125,-0.04296875,-0.90869140625,0.51318359375
856,-1.220703125,0.1220703125,-0.42724609375,-0.04443359375,-0.90869140625,0.513671875
857,-1.03759765625,-0.06103515625,-0.6103515625,-0.04443359375,-0.91357421875,0.5087890625
858,0.3662109375,-0.3662109375,-0.732421875,-0.04296875,-0.9091796875,0.51171875
859,0.732421875,-0.48828125,-0.732421875,-0.04052734375,-0.9091796875,0.51953125
860,0.732421875,-0.244140625,-0.6103515625,-0.0419921875,-0.9072265625,0.521484375
861,0.732421875,-0.18310546875,-0.6103515625,-0.0390625,-0.9091796875,0.51708984375
862,0.732421875,-0.18310546875,-0.6103515625,-0.03955078125,-0.90771484375,0.5166015625
863,0.6103515625,0.0,-0.67138671875,-0.03857421875,-0.908203125,0.52001953125
864,0.67138671875,0.0,-0.54931640625,-0.04052734375,-0.90576171875,0.52294921875
865,0.6103515625,0.0,-0.42724609375,-0.0400390625,-0.90673828125,0.52294921875
866,0.48828125,0.1220703125,-0.48828125,-0.0400390625,-0.90869140625,0.52294921875
867,0.42724609375,0.1220703125,-0.48828125,-0.04248046875,-0.9072265625,0.52490234375
868,0.18310546875,0.1220703125,-0.6103515625,-0.0419921875,-0.9052734375,0.52099609375
869,-0.18310546875,0.0,-0.732421875,-0.041015625,-0.91015625,0.515625
870,-0.30517578125,-0.1220703125,-0.54931640625,-0.04052734375,-0.908203125,0.517578125
871,-0.6103515625,-0.30517578125,-0.54931640625,-0.04296875,-0.90625,0.52197265625
872,-0.6103515625,-0.244140625,-0.54931640625,-0.03955078125,-0.90966796875,0.513671875
873,-0.1220703125,0.06103515625,-0.48828125,-0.0380859375,-0.90771484375,0.52001953125
874,-0.1220703125,0.06103515625,-0.48828125,-0.04052734375,-0.91015625,0.51806640625
875,-0.18310546875,0.18310546875,-0.48828125,-0.0390625,-0.9072265625,0.52001953125
876,-0.1220703125,0.244140625,-0.42724609375,-0.0390625,-0.90673828125,0.51953125
877,-0.18310546875,0.30517578125,-0.3662109375,-0.03955078125,-0.908203125,0.517578125
878,-0.244140625,0.42724609375,-0.3662109375,-0.04052734375,-0.90771484375,0.517578125
879,-0.244140625,0.48828125,-0.3662109375,-0.04052734375,-0.90771484375,0.51904296875
880,-0.3662109375,0.54931640625,-0.42724609375,-0.04150390625,-0.908203125,0.52099609375
881,-0.3662109375,0.3662109375,-0.48828125,-0.04150390625,-0.90673828125,0.51611328125
882,-0.3662109375,0.42724609375,-0.48828125,-0.04052734375,-0.904296875,0.5205078125
883,-0.48828125,0.54931640625,-0.54931640625,-0.04052734375,-0.908203125,0.5234375
884,-0.6103515625,0.42724609375,-0.48828125,-0.04345703125,-0.9091796875,0.517578125
885,-0.6103515625,0.18310546875,-0.48828125,-0.0419921875,-0.9072265625,0.5166015625
886,-0.6103515625,0.1220703125,-0.6103515625,-0.04052734375,-0.9091796875,0.517578125
887,-0.6103515625,0.18310546875,-0.54931640625,-0.0400390625,-0.9111328125,0.517578125
888,0.1220703125,0.0,-0.54931640625,-0.041015625,-0.90966796875,0.51611328125
889,0.30517578125,0.0,-0.48828125,-0.0400390625,-0.90673828125,0.5185546875
890,0.3662109375,0.06103515625,-0.6103515625,-0.04296875,-0.90771484375,0.52099609375
891,0.244140625,0.18310546875,-0.6103515625,-0.04150390625,-0.908203125,0.51953125
892,0.244140625,0.18310546875,-0.6103515625,-0.04150390625,-0.90869140625,0.5166015625
893,0.30517578125,0.18310546875,-0.48828125,-0.0400390625,-0.90576171875,0.517578125
894,0.18310546875,0.1220703125,-0.54931640625,-0.04052734375,-0.90625,0.5224609375
895,0.18310546875,0.1220703125,-0.6103515625,-0.0419921875,-0.90771484375,0.521484375
896,0.1220703125,0.06103515625,-0.67138671875,-0.041015625,-0.90576171875,0.51953125
897,0.0,-0.1220703125,-0.6103515625,-0.04052734375,-0.908203125,0.517578125
898,0.18310546875,-0.18310546875,-0.67138671875,-0.04052734375,-0.9111328125,0.517578125
899,0.42724609375,-0.1220703125,-0.67138671875,-0.03955078125,-0.908203125,0.51806640625
900,0.67138671875,-0.06103515625,-0.6103515625,-0.0390625,-0.90576171875,0.521484375
901,0.732421875,0.0,-0.6103515625,-0.0390625,-0.90869140625,0.517578125
902,0.8544921875,0.1220703125,-0.54931640625,-0.041015625,-0.90966796875,0.51953125
903,0.732421875,0.244140625,-0.54931640625,-0.04150390625,-0.90478515625,0.52099609375
904,0.6103515625,0.18310546875,-0.54931640625,-0.0400390625,-0.9072265625,0.52294921875
905,0.3662109375,0.244140625,-0.48828125,-0.03857421875,-0.90380859375,0.5244140625
906,0.30517578125,0.244140625,-0.48828125,-0.0400390625,-0.908203125,0.5185546875
907,0.244140625,0.3662109375,-0.48828125,-0.04052734375,-0.90771484375,0.515625
908,0.18310546875,0.30517578125,-0.54931640625,-0.04150390625,-0.90576171875,0.52001953125
909,0.244140625,0.3662109375,-0.6103515625,-0.04052734375,-0.90576171875,0.5224609375
910,0.1220703125,0.30517578125,-0.54931640625,-0.04150390625,-0.908203125,0.51904296875
911,0.18310546875,0.30517578125,-0.54931640625,-0.04150390625,-0.9072265625,0.51708984375
912,0.244140625,0.3662109375,-0.48828125,-0.0400390625,-0.9072265625,0.51904296875
913,0.3662109375,0.244140625,-0.54931640625,-0.0419921875,-0.90966796875,0.51513671875
914,0.3662109375,0.30517578125,-0.54931640625,-0.0390625,-0.90673828125,0.51806640625
915,0.18310546875,0.30517578125,-0.54931640625,-0.03759765625,-0.90576171875,0.52197265625
916,0.18310546875,0.3662109375,-0.48828125,-0.0380859375,-0.90771484375,0.5224609375
917,0.1220703125,0.42724609375,-0.48828125,-0.0390625,-0.9052734375,0.51904296875
918,-0.1220703125,0.54931640625,-0.42724609375,-0.0390625,-0.90673828125,0.51904296875
919,-0.244140625,0.54931640625,-0.3662109375,-0.0419921875,-0.9072265625,0.525390625
920,-0.30517578125,0.42724609375,-0.42724609375,-0.04150390625,-0.9072265625,0.52099609375
921,-0.18310546875,0.3662109375,-0.48828125,-0.0400390625,-0.908203125,0.515625
922,-0.18310546875,0.3662109375,-0.42724609375,-0.0419921875,-0.908203125,0.5224609375
923,-0.18310546875,0.42724609375,-0.48828125,-0.0400390625,-0.90380859375,0.52099609375
924,0.0,0.42724609375,-0.48828125,-0.03955078125,-0.9052734375,0.51953125
925,0.1220703125,0.48828125,-0.54931640625,-0.04052734375,-0.90673828125,0.5234375
926,-0.06103515625,0.48828125,-0.54931640625,-0.04150390625,-0.90625,0.52197265625
927,-0.1220703125,0.42724609375,-0.54931640625,-0.04296875,-0.90771484375,0.52294921875
928,-0.1220703125,0.3662109375,-0.42724609375,-0.037109375,-0.9091796875,0.52001953125
929,-0.06103515625,0.3662109375,-0.42724609375,-0.03857421875,-0.90771484375,0.5166015625
930,0.06103515625,0.3662109375,-0.42724609375,-0.04052734375,-0.9072265625,0.51953125
931,0.1220703125,0.42724609375,-0.42724609375,-0.0419921875,-0.90869140625,0.5224609375
932,0.18310546875,0.42724609375,-0.48828125,-0.041015625,-0.90966796875,0.51806640625
933,0.18310546875,0.3662109375,-0.42724609375,-0.0400390625,-0.90478515625,0.52197265625
934,0.0,0.30517578125,-0.48828125,-0.041015625,-0.90869140625,0.521484375
935,-0.1220703125,0.30517578125,-0.48828125,-0.0400390625,-0.90673828125,0.51806640625
936,-0.18310546875,0.244140625,-0.48828125,-0.041015625,-0.9033203125,0.52099609375
937,-0.1220703125,0.30517578125,-0.42724609375,-0.0400390625,-0.90478515625,0.51953125
938,-0.1220703125,0.3662109375,-0.42724609375,-0.04150390625,-0.90625,0.52001953125
939,-0.06103515625,0.42724609375,-0.48828125,-0.04150390625,-0.90673828125,0.5205078125
940,-0.18310546875,0.3662109375,-0.54931640625,-0.04150390625,-0.90576171875,0.52001953125
941,-0.30517578125,0.30517578125,-0.42724609375,-0.0400390625,-0.90625,0.517578125
942,-0.1220703125,0.18310546875,-0.54931640625,-0.03857421875,-0.90625,0.5224609375
943,-0.06103515625,0.244140625,-0.48828125,-0.041015625,-0.90576171875,0.521484375
944,-0.06103515625,0.3662109375,-0.48828125,-0.03759765625,-0.90771484375,0.51708984375
945,0.1220703125,0.3662109375,-0.48828125,-0.0400390625,-0.90771484375,0.52392578125
946,0.1220703125,0.3662109375,-0.48828125,-0.04052734375,-0.90576171875,0.51953125
947,0.06103515625,0.48828125,-0.3662109375,-0.04052734375,-0.90625,0.5185546875
948,-0.1220703125,0.54931640625,-0.42724609375,-0.041015625,-0.9052734375,0.52099609375
949,-0.30517578125,0.48828125,-0.48828125,-0.04052734375,-0.90673828125,0.5234375
950,-0.3662109375,0.54931640625,-0.42724609375,-0.0419921875,-0.90673828125,0.5224609375
951,-0.48828125,0.54931640625,-0.42724609375,-0.04150390625,-0.90771484375,0.5205078125
952,-0.3662109375,0.3662109375,-0.48828125,-0.041015625,-0.908203125,0.517578125
953,-0.3662109375,0.48828125,-0.54931640625,-0.041015625,-0.90673828125,0.51904296875
954,-0.18310546875,0.42724609375,-0.6103515625,-0.0400390625,-0.90673828125,0.51953125
955,-0.06103515625,0.42724609375,-0.54931640625,-0.03857421875,-0.908203125,0.5205078125
956,-0.1220703125,0.6103515625,-0.48828125,-0.0400390625,-0.90625,0.521484375
957,-0.06103515625,0.54931640625,-0.48828125,-0.0439453125,-0.908203125,0.52197265625
958,0.06103515625,0.48828125,-0.48828125,-0.041015625,-0.90771484375,0.52197265625
959,0.244140625,0.48828125,-0.42724609375,-0.0419921875,-0.90673828125,0.51904296875
960,0.42724609375,0.48828125,-0.3662109375,-0.04248046875,-0.908203125,0.52294921875
961,0.30517578125,0.3662109375,-0.48828125,-0.0400390625,-0.908203125,0.5205078125
962,0.244140625,0.18310546875,-0.48828125,-0.0419921875,-0.9091796875,0.51513671875
963,0.3662109375,0.244140625,-0.48828125,-0.0439453125,-0.90869140625,0.5185546875
964,0.54931640625,0.244140625,-0.42724609375,-0.041015625,-0.904296875,0.52734375
965,0.18310546875,0.30517578125,-0.48828125,-0.0390625,-0.9072265625,0.5234375
966,0.06103515625,0.3662109375,-0.42724609375,-0.03857421875,-0.91015625,0.52099609375
967,0.06103515625,0.42724609375,-0.42724609375,-0.041015625,-0.90625,0.5234375
968,-0.06103515625,0.30517578125,-0.42724609375,-0.0419921875,-0.90576171875,0.52197265625
969,-0.1220703125,0.244140625,-0.48828125,-0.041015625,-0.90869140625,0.52099609375
970,-0.06103515625,0.18310546875,-0.48828125,-0.0390625,-0.90966796875,0.52001953125
971,0.0,0.30517578125,-0.48828125,-0.04052734375,-0.9072265625,0.52197265625
972,-0.06103515625,0.3662109375,-0.48828125,-0.0400390625,-0.90673828125,0.51953125
973,0.0,0.30517578125,-0.42724609375,-0.0380859375,-0.90576171875,0.52099609375
974,0.06103515625,0.3662109375,-0.42724609375,-0.03955078125,-0.90478515625,0.52001953125
975,0.0,0.3662109375,-0.48828125,-0.03955078125,-0.9052734375,0.521484375
976,0.0,0.244140625,-0.48828125,-0.041015625,-0.9072265625,0.52001953125
977,0.18310546875,0.30517578125,-0.54931640625,-0.0400390625,-0.90673828125,0.52001953125
978,0.244140625,0.42724609375,-0.42724609375,-0.03857421875,-0.9052734375,0.5224609375
979,0.244140625,0.42724609375,-0.3662109375,-0.03857421875,-0.90673828125,0.51806640625
980,0.3662109375,0.42724609375,-0.48828125,-0.04150390625,-0.9091796875,0.521484375
981,0.30517578125,0.42724609375,-0.48828125,-0.03955078125,-0.904296875,0.5244140625
982,0.06103515625,0.3662109375,-0.48828125,-0.04345703125,-0.90478515625,0.5234375
983,-0.06103515625,0.3662109375,-0.54931640625,-0.0419921875,-0.90380859375,0.5224609375
984,-0.1220703125,0.42724609375,-0.48828125,-0.03955078125,-0.90625,0.5224609375
985,-0.244140625,0.3662109375,-0.42724609375,-0.04443359375,-0.90625,0.52099609375
986,-0.18310546875,0.3662109375,-0.42724609375,-0.041015625,-0.90478515625,0.52001953125
987,-0.1220703125,0.42724609375,-0.48828125,-0.0400390625,-0.90673828125,0.52490234375
988,-0.1220703125,0.30517578125,-0.54931640625,-0.0419921875,-0.9072265625,0.52294921875
989,-0.06103515625,0.30517578125,-0.48828125,-0.0390625,-0.90576171875,0.5224609375
990,-0.1220703125,0.3662109375,-0.48828125,-0.04052734375,-0.90576171875,0.5224609375
991,-0.1220703125,0.30517578125,-0.42724609375,-0.0419921875,-0.90576171875,0.5224609375
992,-0.06103515625,0.42724609375,-0.48828125,-0.03857421875,-0.9052734375,0.5234375
993,-0.244140625,0.48828125,-0.48828125,-0.04052734375,-0.90771484375,0.5224609375
994,-0.3662109375,0.48828125,-0.3662109375,-0.04248046875,-0.9072265625,0.5224609375
995,-0.42724609375,0.48828125,-0.48828125,-0.04150390625,-0.90869140625,0.52001953125
996,-0.42724609375,0.42724609375,-0.54931640625,-0.04052734375,-0.9072265625,0.52197265625
997,-0.30517578125,0.42724609375,-0.54931640625,-0.0400390625,-0.90771484375,0.52294921875
998,-0.1220703125,0.3662109375,-0.48828125,-0.03955078125,-0.9052734375,0.5205078125
999,-0.18310546875,0.3662109375,-0.48828125,-0.04248046875,-0.90576171875,0.5185546875
1000,-0.18310546875,0.3662109375,-0.48828125,-0.04052734375,-0.90771484375,0.5185546875
1001,-0.1220703125,0.3662109375,-0.48828125,-0.0419921875,-0.90625,0.521484375
1002,-0.18310546875,0.3662109375,-0.48828125,-0.041015625,-0.90625,0.51953125
1003,-0.1220703125,0.30517578125,-0.48828125,-0.0400390625,-0.908203125,0.51513671875
1004,-0.06103515625,0.30517578125,-0.48828125,-0.0419921875,-0.90771484375,0.517578125
1005,0.06103515625,0.244140625,-0.54931640625,-0.03955078125,-0.904296875,0.52197265625
1006,0.30517578125,0.3662109375,-0.42724609375,-0.0400390625,-0.90478515625,0.52099609375
1007,0.30517578125,0.244140625,-0.42724609375,-0.0390625,-0.9072265625,0.521484375
1008,0.0,0.244140625,-0.42724609375,-0.04052734375,-0.90478515625,0.5234375
1009,0.0,0.30517578125,-0.42724609375,-0.04052734375,-0.90673828125,0.52392578125
1010,0.0,0.3662109375,-0.54931640625,-0.0380859375,-0.90625,0.52099609375
1011,0.0,0.244140625,-0.48828125,-0.0390625,-0.90576171875,0.52099609375
1012,-0.06103515625,0.18310546875,-0.48828125,-0.04345703125,-0.90673828125,0.5244140625
1013,0.0,0.30517578125,-0.54931640625,-0.04296875,-0.904296875,0.525390625
1014,0.1220703125,0.244140625,-0.48828125,-0.04052734375,-0.9052734375,0.51904296875
1015,0.0,0.244140625,-0.54931640625,-0.0400390625,-0.90625,0.517578125
1016,0.06103515625,0.30517578125,-0.48828125,-0.0390625,-0.90576171875,0.5224609375
1017,0.0,0.30517578125,-0.48828125,-0.04296875,-0.90673828125,0.52197265625
1018,0.18310546875,0.30517578125,-0.48828125,-0.04296875,-0.90576171875,0.52099609375
1019,0.42724609375,0.30517578125,-0.48828125,-0.0400390625,-0.90771484375,0.52490234375
1020,0.18310546875,0.42724609375,-0.42724609375,-0.03857421875,-0.9072265625,0.5234375
1021,0.06103515625,0.3662109375,-0.48828125,-0.03955078125,-0.90771484375,0.51904296875
1022,0.244140625,0.30517578125,-0.42724609375,-0.0390625,-0.90673828125,0.52099609375
1023,0.18310546875,0.244140625,-0.42724609375,-0.0400390625,-0.9052734375,0.52587890625
1024,0.0,0.244140625,-0.48828125,-0.04345703125,-0.90625,0.52392578125
1025,0.06103515625,0.18310546875,-0.42724609375,-0.04052734375,-0.90576171875,0.52294921875
1026,-0.06103515625,0.244140625,-0.42724609375,-0.04296875,-0.90576171875,0.52099609375
1027,-0.06103515625,0.30517578125,-0.42724609375,-0.04248046875,-0.90869140625,0.51806640625
1028,0.06103515625,0.30517578125,-0.48828125,-0.03955078125,-0.904296875,0.52294921875
1029,0.0,0.30517578125,-0.48828125,-0.03955078125,-0.90625,0.5224609375
1030,0.0,0.244140625,-0.48828125,-0.04150390625,-0.908203125,0.5224609375
1031,-0.1220703125,0.244140625,-0.42724609375,-0.03955078125,-0.90625,0.52001953125
1032,-0.06103515625,0.30517578125,-0.48828125,-0.0419921875,-0.90673828125,0.521484375
1033,-0.244140625,0.30517578125,-0.54931640625,-0.0400390625,-0.90625,0.52197265625
1034,-0.18310546875,0.244140625,-0.48828125,-0.0400390625,-0.90625,0.52001953125
1035,-0.06103515625,0.30517578125,-0.48828125,-0.041015625,-0.90771484375,0.51953125
1036,0.18310546875,0.244140625,-0.48828125,-0.04052734375,-0.90478515625,0.52099609375
1037,0.1220703125,0.30517578125,-0.42724609375,-0.041015625,-0.9052734375,0.52001953125
1038,0.42724609375,0.30517578125,-0.42724609375,-0.04248046875,-0.90625,0.52197265625
1039,0.54931640625,0.30517578125,-0.42724609375,-0.04150390625,-0.90576171875,0.52197265625
1040,0.54931640625,0.18310546875,-0.42724609375,-0.04150390625,-0.90673828125,0.521484375
1041,0.48828125,0.30517578125,-0.42724609375,-0.041015625,-0.9052734375,0.52490234375
1042,0.42724609375,0.42724609375,-0.48828125,-0.04052734375,-0.90380859375,0.52490234375
1043,0.30517578125,0.42724609375,-0.54931640625,-0.03955078125,-0.90283203125,0.52734375
1044,0.06103515625,0.3662109375,-0.6103515625,-0.04052734375,-0.90576171875,0.52490234375
1045,0.0,0.3662109375,-0.42724609375,-0.04296875,-0.9052734375,0.5224609375
1046,0.1220703125,0.42724609375,-0.42724609375,-0.04248046875,-0.9072265625,0.5234375
1047,0.0,0.3662109375,-0.48828125,-0.04150390625,-0.90576171875,0.5205078125
1048,-0.06103515625,0.3662109375,-0.54931640625,-0.041015625,-0.90625,0.5205078125
1049,0.06103515625,0.3662109375,-0.54931640625,-0.0419921875,-0.90576171875,0.52294921875
1050,0.1220703125,0.30517578125,-0.48828125,-0.04052734375,-0.90380859375,0.52294921875
1051,0.1220703125,0.30517578125,-0.54931640625,-0.03955078125,-0.90380859375,0.521484375
1052,0.0,0.42724609375,-0.42724609375,-0.0400390625,-0.904296875,0.51904296875
1053,-0.06103515625,0.42724609375,-0.48828125,-0.0390625,-0.9052734375,0.525390625
1054,-0.244140625,0.3662109375,-0.48828125,-0.04052734375,-0.90673828125,0.52099609375
1055,-0.18310546875,0.42724609375,-0.48828125,-0.04150390625,-0.904296875,0.52099609375
1056,0.0,0.48828125,-0.48828125,-0.041015625,-0.9052734375,0.52294921875
1057,0.1220703125,0.3662109375,-0.48828125,-0.0400390625,-0.90625,0.5234375
1058,0.06103515625,0.30517578125,-0.48828125,-0.041015625,-0.90283203125,0.5244140625
1059,0.0,0.3662109375,-0.48828125,-0.0400390625,-0.90234375,0.52392578125
1060,-0.18310546875,0.30517578125,-0.48828125,-0.04052734375,-0.904296875,0.52587890625
1061,-0.1220703125,0.3662109375,-0.42724609375,-0.03955078125,-0.90625,0.5244140625
1062,0.06103515625,0.3662109375,-0.48828125,-0.04296875,-0.90625,0.521484375
1063,-0.06103515625,0.3662109375,-0.42724609375,-0.04052734375,-0.904296875,0.5224609375
1064,-0.30517578125,0.42724609375,-0.42724609375,-0.04052734375,-0.904296875,0.5224609375
1065,0.0,0.3662109375,-0.48828125,-0.0400390625,-0.90869140625,0.52197265625
1066,0.6103515625,0.3662109375,-0.54931640625,-0.03955078125,-0.9052734375,0.52734375
1067,0.06103515625,0.42724609375,-0.48828125,-0.03955078125,-0.9033203125,0.52392578125
1068,-0.1220703125,0.3662109375,-0.3662109375,-0.0390625,-0.90234375,0.52587890625
1069,-0.1220703125,0.42724609375,-0.42724609375,-0.041015625,-0.90625,0.52197265625
1070,-0.18310546875,0.48828125,-0.42724609375,-0.04248046875,-0.9072265625,0.52490234375
1071,-0.1220703125,0.54931640625,-0.42724609375,-0.041015625,-0.9052734375,0.521484375
1072,-0.1220703125,0.42724609375,-0.48828125,-0.03759765625,-0.9072265625,0.5224609375
1073,-0.1220703125,0.48828125,-0.54931640625,-0.0400390625,-0.9033203125,0.52490234375
1074,-0.18310546875,0.54931640625,-0.48828125,-0.04052734375,-0.90478515625,0.52490234375
1075,-0.30517578125,0.6103515625,-0.48828125,-0.03955078125,-0.90771484375,0.52197265625
1076,-0.18310546875,0.48828125,-0.54931640625,-0.04296875,-0.90673828125,0.5224609375
1077,-0.244140625,0.54931640625,-0.48828125,-0.0419921875,-0.90576171875,0.521484375
1078,-0.3662109375,0.48828125,-0.6103515625,-0.03955078125,-0.90625,0.52001953125
1079,-0.30517578125,0.48828125,-0.54931640625,-0.04248046875,-0.9052734375,0.52587890625
1080,-0.244140625,0.54931640625,-0.48828125,-0.041015625,-0.90576171875,0.52490234375
1081,-0.244140625,0.54931640625,-0.54931640625,-0.0400390625,-0.90576171875,0.5185546875
1082,-0.244140625,0.42724609375,-0.54931640625,-0.0400390625,-0.90380859375,0.5244140625
1083,-0.244140625,0.48828125,-0.48828125,-0.03955078125,-0.9052734375,0.5224609375
1084,-0.18310546875,0.3662109375,-0.42724609375,-0.04150390625,-0.90625,0.5234375
1085,0.0,0.30517578125,-0.54931640625,-0.03955078125,-0.9052734375,0.52001953125
1086,-0.1220703125,0.3662109375,-0.6103515625,-0.03857421875,-0.90625,0.52392578125
1087,-0.06103515625,0.3662109375,-0.6103515625,-0.04150390625,-0.90625,0.52392578125
1088,-0.06103515625,0.3662109375,-0.54931640625,-0.04150390625,-0.904296875,0.5234375
1089,-0.06103515625,0.42724609375,-0.54931640625,-0.0400390625,-0.9033203125,0.52587890625
1090,-0.244140625,0.42724609375,-0.6103515625,-0.04150390625,-0.90625,0.52294921875
1091,-0.06103515625,0.3662109375,-0.48828125,-0.04150390625,-0.90478515625,0.52001953125
1092,-0.06103515625,0.48828125,-0.42724609375,-0.0419921875,-0.90625,0.52197265625
1093,-0.1220703125,0.42724609375,-0.48828125,-0.0419921875,-0.90625,0.52197265625
1094,0.06103515625,0.3662109375,-0.48828125,-0.041015625,-0.90576171875,0.52490234375
1095,0.30517578125,0.48828125,-0.54931640625,-0.03955078125,-0.90673828125,0.5224609375
1096,-0.1220703125,0.30517578125,-0.48828125,-0.03955078125,-0.9033203125,0.52783203125
1097,0.0,0.3662109375,-0.48828125,-0.04052734375,-0.90625,0.5224609375
1098,0.0,0.3662109375,-0.48828125,-0.0419921875,-0.90625,0.5234375
1099,-0.06103515625,0.244140625,-0.48828125,-0.04345703125,-0.90673828125,0.5234375
1100,-0.1220703125,0.42724609375,-0.6103515625,-0.04248046875,-0.90966796875,0.52099609375
1101,0.1220703125,0.3662109375,-0.54931640625,-0.04052734375,-0.90673828125,0.52294921875
1102,0.30517578125,0.30517578125,-0.48828125,-0.04052734375,-0.90283203125,0.52783203125
1103,-0.244140625,0.30517578125,-0.42724609375,-0.03759765625,-0.904296875,0.5224609375
1104,-0.18310546875,0.30517578125,-0.42724609375,-0.0390625,-0.90673828125,0.5205078125
1105,-0.1220703125,0.30517578125,-0.42724609375,-0.04052734375,-0.90673828125,0.521484375
1106,-0.18310546875,0.30517578125,-0.48828125,-0.0419921875,-0.90625,0.5234375
1107,-0.1220703125,0.3662109375,-0.48828125,-0.041015625,-0.904296875,0.52392578125
1108,0.06103515625,0.3662109375,-0.48828125,-0.04150390625,-0.90576171875,0.521484375
1109,0.06103515625,0.30517578125,-0.42724609375,-0.04150390625,-0.90576171875,0.5234375
1110,-0.1220703125,0.30517578125,-0.42724609375,-0.0400390625,-0.9052734375,0.52294921875
1111,-0.1220703125,0.244140625,-0.42724609375,-0.04150390625,-0.90673828125,0.52392578125
1112,-0.18310546875,0.18310546875,-0.48828125,-0.041015625,-0.908203125,0.51904296875
1113,0.244140625,0.1220703125,-0.48828125,-0.03857421875,-0.9052734375,0.5244140625
1114,0.54931640625,0.18310546875,-0.48828125,-0.04150390625,-0.9033203125,0.525390625
1115,-0.18310546875,0.30517578125,-0.3662109375,-0.0400390625,-0.90576171875,0.52490234375
1116,-0.18310546875,0.3662109375,-0.3662109375,-0.03955078125,-0.90576171875,0.52490234375
1117,-0.3662109375,0.244140625,-0.3662109375,-0.0419921875,-0.904296875,0.5224609375
1118,-0.3662109375,0.244140625,-0.42724609375,-0.04150390625,-0.9052734375,0.52490234375
1119,-0.42724609375,0.30517578125,-0.42724609375,-0.04052734375,-0.9033203125,0.5224609375
1120,-0.42724609375,0.3662109375,-0.42724609375,-0.04052734375,-0.90576171875,0.52099609375
1121,-0.3662109375,0.30517578125,-0.42724609375,-0.0380859375,-0.9052734375,0.52197265625
1122,-0.244140625,0.30517578125,-0.42724609375,-0.0400390625,-0.9052734375,0.5244140625
1123,-0.18310546875,0.244140625,-0.42724609375,-0.04150390625,-0.90625,0.52197265625
1124,-0.1220703125,0.244140625,-0.42724609375,-0.041015625,-0.9052734375,0.52099609375
1125,-0.244140625,0.30517578125,-0.48828125,-0.0400390625,-0.90283203125,0.52490234375
1126,-0.244140625,0.30517578125,-0.42724609375,-0.04052734375,-0.90625,0.5283203125
1127,-0.244140625,0.3662109375,-0.48828125,-0.04248046875,-0.90576171875,0.5224609375
1128,-0.244140625,0.3662109375,-0.48828125,-0.0390625,-0.90576171875,0.5205078125
1129,-0.30517578125,0.42724609375,-0.42724609375,-0.04150390625,-0.90478515625,0.5224609375
1130,-0.18310546875,0.42724609375,-0.42724609375,-0.04248046875,-0.90576171875,0.52490234375
1131,-0.244140625,0.42724609375,-0.42724609375,-0.04150390625,-0.90673828125,0.5234375
1132,-0.18310546875,0.3662109375,-0.3662109375,-0.0400390625,-0.9052734375,0.5224609375
1133,-0.1220703125,0.42724609375,-0.42724609375,-0.03857421875,-0.90478515625,0.521484375
1134,-0.1220703125,0.48828125,-0.48828125,-0.04052734375,-0.90478515625,0.52001953125
1135,-0.244140625,0.42724609375,-0.42724609375,-0.0439453125,-0.90771484375,0.51708984375
1136,0.0,0.3662109375,-0.48828125,-0.0419921875,-0.9052734375,0.5234375
1137,0.1220703125,0.3662109375,-0.42724609375,-0.0419921875,-0.9052734375,0.52392578125
1138,0.0,0.3662109375,-0.48828125,-0.041015625,-0.90673828125,0.52099609375
1139,0.06103515625,0.3662109375,-0.6103515625,-0.03955078125,-0.90771484375,0.525390625
1140,-0.06103515625,0.244140625,-0.54931640625,-0.041015625,-0.90380859375,0.5234375
1141,-0.18310546875,0.3662109375,-0.42724609375,-0.0380859375,-0.90576171875,0.51904296875
1142,-0.18310546875,0.3662109375,-0.54931640625,-0.03955078125,-0.90771484375,0.5205078125
1143,-0.244140625,0.3662109375,-0.54931640625,-0.0419921875,-0.9072265625,0.5234375
1144,-0.18310546875,0.30517578125,-0.48828125,-0.041015625,-0.9052734375,0.52294921875
1145,-0.1220703125,0.244140625,-0.42724609375,-0.03955078125,-0.9052734375,0.525390625
1146,-0.1220703125,0.244140625,-0.3662109375,-0.0400390625,-0.90673828125,0.52294921875
1147,0.0,0.30517578125,-0.3662109375,-0.0419921875,-0.90576171875,0.52392578125
1148,-0.1220703125,0.30517578125,-0.42724609375,-0.04052734375,-0.9052734375,0.52294921875
1149,-0.244140625,0.30517578125,-0.54931640625,-0.04296875,-0.9052734375,0.52392578125
1150,-0.18310546875,0.3662109375,-0.42724609375,-0.041015625,-0.90576171875,0.52392578125
1151,-0.18310546875,0.30517578125,-0.54931640625,-0.04150390625,-0.9052734375,0.52392578125
1152,-0.30517578125,0.30517578125,-0.54931640625,-0.0419921875,-0.90576171875,0.52587890625
1153,-0.30517578125,0.3662109375,-0.48828125,-0.041015625,-0.908203125,0.5244140625
1154,-0.30517578125,0.42724609375,-0.54931640625,-0.04052734375,-0.90771484375,0.5234375
1155,-0.30517578125,0.48828125,-0.42724609375,-0.0400390625,-0.90576171875,0.521484375
1156,-0.18310546875,0.3662109375,-0.42724609375,-0.0400390625,-0.90478515625,0.52099609375
1157,-0.06103515625,0.42724609375,-0.54931640625,-0.04150390625,-0.9052734375,0.5205078125
1158,-0.1220703125,0.42724609375,-0.48828125,-0.04296875,-0.90478515625,0.52294921875
1159,-0.18310546875,0.3662109375,-0.48828125,-0.0419921875,-0.90576171875,0.52099609375
1160,-0.1220703125,0.3662109375,-0.54931640625,-0.04248046875,-0.90478515625,0.5234375
1161,-0.244140625,0.42724609375,-0.42724609375,-0.0400390625,-0.90478515625,0.5234375
1162,-0.30517578125,0.42724609375,-0.3662109375,-0.0419921875,-0.90771484375,0.5224609375
1163,-0.244140625,0.42724609375,-0.42724609375,-0.04296875,-0.90771484375,0.52197265625
1164,-0.18310546875,0.42724609375,-0.42724609375,-0.041015625,-0.9072265625,0.52294921875
1165,-0.1220703125,0.42724609375,-0.48828125,-0.04052734375,-0.9072265625,0.51708984375
1166,-0.1220703125,0.42724609375,-0.48828125,-0.04150390625,-0.9052734375,0.52392578125
1167,-0.1220703125,0.3662109375,-0.48828125,-0.04296875,-0.90673828125,0.5263671875
1168,-0.1220703125,0.3662109375,-0.42724609375,-0.0400390625,-0.90625,0.521484375
1169,-0.1220703125,0.42724609375,-0.48828125,-0.04150390625,-0.90673828125,0.525390625
1170,-0.1220703125,0.42724609375,-0.48828125,-0.0419921875,-0.90576171875,0.52490234375
1171,-0.06103515625,0.3662109375,-0.48828125,-0.0419921875,-0.90478515625,0.52294921875
1172,0.0,0.3662109375,-0.54931640625,-0.04150390625,-0.9072265625,0.52001953125
1173,0.06103515625,0.244140625,-0.48828125,-0.0419921875,-0.90576171875,0.521484375
1174,0.0,0.30517578125,-0.48828125,-0.04150390625,-0.90673828125,0.5224609375
1175,0.0,0.3662109375,-0.54931640625,-0.04150390625,-0.90478515625,0.52099609375
1176,0.06103515625,0.3662109375,-0.42724609375,-0.04345703125,-0.9033203125,0.52392578125
1177,0.0,0.42724609375,-0.48828125,-0.0419921875,-0.90771484375,0.5205078125
1178,0.0,0.42724609375,-0.54931640625,-0.04052734375,-0.90673828125,0.5244140625
1179,-0.1220703125,0.3662109375,-0.54931640625,-0.04296875,-0.90380859375,0.52294921875
1180,-0.18310546875,0.3662109375,-0.48828125,-0.04150390625,-0.90625,0.5234375
1181,-0.18310546875,0.48828125,-0.48828125,-0.03955078125,-0.9072265625,0.5234375
1182,-0.244140625,0.42724609375,-0.48828125,-0.04052734375,-0.90673828125,0.52392578125
1183,-0.244140625,0.3662109375,-0.48828125,-0.04248046875,-0.9052734375,0.525390625
1184,-0.18310546875,0.30517578125,-0.42724609375,-0.04296875,-0.9072265625,0.51953125
1185,-0.06103515625,0.30517578125,-0.54931640625,-0.04052734375,-0.90576171875,0.5205078125
1186,-0.1220703125,0.3662109375,-0.54931640625,-0.04052734375,-0.90283203125,0.521484375
1187,-0.1220703125,0.3662109375,-0.48828125,-0.03955078125,-0.9052734375,0.5263671875
1188,-0.1220703125,0.42724609375,-0.48828125,-0.04052734375,-0.9052734375,0.52587890625
1189,-0.1220703125,0.3662109375,-0.48828125,-0.041015625,-0.9052734375,0.52490234375
1190,-0.18310546875,0.3662109375,-0.48828125,-0.04052734375,-0.90673828125,0.52392578125
1191,-0.18310546875,0.42724609375,-0.54931640625,-0.041015625,-0.90673828125,0.52197265625
1192,-0.18310546875,0.3662109375,-0.6103515625,-0.04248046875,-0.90625,0.52392578125
1193,-0.18310546875,0.54931640625,-0.54931640625,-0.041015625,-0.9052734375,0.52001953125
1194,-0.244140625,0.48828125,-0.48828125,-0.041015625,-0.90673828125,0.52001953125
1195,-0.1220703125,0.42724609375,-0.48828125,-0.0419921875,-0.90673828125,0.52294921875
1196,0.0,0.3662109375,-0.54931640625,-0.0419921875,-0.90625,0.52099609375
1197,0.1220703125,0.3662109375,-0.54931640625,-0.0400390625,-0.90478515625,0.52001953125
1198,0.06103515625,0.42724609375,-0.67138671875,-0.0390625,-0.90576171875,0.5244140625
1199,-0.1220703125,0.3662109375,-0.48828125,-0.04150390625,-0.90625,0.52490234375
1200,0.0,0.3662109375,-0.42724609375,-0.0419921875,-0.90478515625,0.521484375
1201,-0.06103515625,0.3662109375,-0.3662109375,-0.04296875,-0.90478515625,0.5205078125
1202,-0.06103515625,0.3662109375,-0.42724609375,-0.04248046875,-0.90625,0.52490234375
1203,0.0,0.3662109375,-0.48828125,-0.0419921875,-0.9072265625,0.52099609375
1204,0.0,0.30517578125,-0.48828125,-0.041015625,-0.90625,0.52099609375
1205,0.06103515625,0.30517578125,-0.54931640625,-0.04150390625,-0.90673828125,0.52001953125
1206,0.06103515625,0.3662109375,-0.54931640625,-0.04150390625,-0.90576171875,0.52880859375
1207,0.0,0.30517578125,-0.54931640625,-0.04150390625,-0.9052734375,0.52490234375
1208,0.0,0.30517578125,-0.48828125,-0.0390625,-0.90625,0.525390625
1209,-0.06103515625,0.3662109375,-0.42724609375,-0.04052734375,-0.90576171875,0.52197265625
1210,-0.1220703125,0.30517578125,-0.42724609375,-0.04052734375,-0.904296875,0.52197265625
1211,-0.18310546875,0.42724609375,-0.48828125,-0.04150390625,-0.90625,0.52294921875
1212,-0.244140625,0.48828125,-0.48828125,-0.04150390625,-0.90478515625,0.5244140625
1213,-0.18310546875,0.48828125,-0.42724609375,-0.04248046875,-0.908203125,0.521484375
1214,-0.244140625,0.42724609375,-0.3662109375,-0.04296875,-0.908203125,0.52294921875
1215,-0.244140625,0.42724609375,-0.3662109375,-0.0419921875,-0.90576171875,0.5205078125
1216,-0.18310546875,0.42724609375,-0.48828125,-0.03857421875,-0.9052734375,0.5244140625
1217,-0.1220703125,0.42724609375,-0.48828125,-0.04052734375,-0.90673828125,0.52197265625
1218,-0.06103515625,0.42724609375,-0.42724609375,-0.041015625,-0.908203125,0.5224609375
1219,0.06103515625,0.3662109375,-0.48828125,-0.0400390625,-0.908203125,0.521484375
1220,0.1220703125,0.3662109375,-0.48828125,-0.0400390625,-0.90478515625,0.51953125
1221,0.0,0.3662109375,-0.48828125,-0.04296875,-0.90576171875,0.5205078125
1222,-0.1220703125,0.42724609375,-0.42724609375,-0.04150390625,-0.9072265625,0.521484375
1223,-0.18310546875,0.42724609375,-0.48828125,-0.04150390625,-0.90771484375,0.52392578125
1224,-0.18310546875,0.42724609375,-0.48828125,-0.04052734375,-0.90576171875,0.5224609375
1225,-0.1220703125,0.42724609375,-0.42724609375,-0.0400390625,-0.90625,0.5205078125
1226,-0.06103515625,0.42724609375,-0.42724609375,-0.041015625,-0.904296875,0.52099609375
1227,-0.06103515625,0.42724609375,-0.48828125,-0.04052734375,-0.9052734375,0.52392578125
1228,-0.06103515625,0.48828125,-0.42724609375,-0.0419921875,-0.90625,0.52392578125
1229,-0.18310546875,0.48828125,-0.48828125,-0.041015625,-0.90673828125,0.525390625
1230,-0.18310546875,0.3662109375,-0.42724609375,-0.0400390625,-0.908203125,0.521484375
1231,-0.18310546875,0.42724609375,-0.48828125,-0.03955078125,-0.90625,0.51708984375
1232,-0.18310546875,0.42724609375,-0.48828125,-0.04150390625,-0.904296875,0.52099609375
1233,-0.06103515625,0.48828125,-0.48828125,-0.037109375,-0.90478515625,0.5224609375
1234,0.0,0.54931640625,-0.42724609375,-0.03857421875,-0.90478515625,0.52392578125
1235,0.0,0.48828125,-0.48828125,-0.0400390625,-0.90625,0.52197265625
1236,0.0,0.3662109375,-0.48828125,-0.04150390625,-0.90576171875,0.5224609375
1237,0.0,0.3662109375,-0.42724609375,-0.04248046875,-0.9033203125,0.521484375
1238,-0.1220703125,0.48828125,-0.48828125,-0.041015625,-0.9052734375,0.5224609375
1239,-0.06103515625,0.42724609375,-0.54931640625,-0.0419921875,-0.90625,0.52001953125
1240,-0.06103515625,0.30517578125,-0.54931640625,-0.04150390625,-0.90478515625,0.5224609375
1241,-0.1220703125,0.244140625,-0.48828125,-0.041015625,-0.90234375,0.52294921875
1242,-0.06103515625,0.244140625,-0.48828125,-0.04248046875,-0.90673828125,0.517578125
1243,0.0,0.30517578125,-0.54931640625,-0.04296875,-0.9052734375,0.52587890625
1244,0.0,0.3662109375,-0.54931640625,-0.0419921875,-0.90478515625,0.5244140625
1245,0.0,0.42724609375,-0.6103515625,-0.0419921875,-0.904296875,0.5244140625
1246,0.0,0.3662109375,-0.54931640625,-0.04296875,-0.9033203125,0.52392578125
1247,0.0,0.3662109375,-0.48828125,-0.041015625,-0.9052734375,0.521484375
1248,-0.1220703125,0.42724609375,-0.48828125,-0.03955078125,-0.904296875,0.52490234375
1249,-0.1220703125,0.42724609375,-0.48828125,-0.0400390625,-0.904296875,0.5224609375
1250,-0.06103515625,0.42724609375,-0.48828125,-0.041015625,-0.9052734375,0.52392578125
1251,-0.1220703125,0.3662109375,-0.48828125,-0.041015625,-0.9052734375,0.52490234375
1252,-0.1220703125,0.3662109375,-0.54931640625,-0.041015625,-0.90478515625,0.5224609375
1253,0.1220703125,0.48828125,-0.48828125,-0.0419921875,-0.90478515625,0.52294921875
1254,0.06103515625,0.3662109375,-0.48828125,-0.0419921875,-0.90673828125,0.52392578125
1255,0.06103515625,0.3662109375,-0.48828125,-0.041015625,-0.9091796875,0.525390625
1256,0.06103515625,0.3662109375,-0.54931640625,-0.04052734375,-0.9072265625,0.52685546875
1257,0.0,0.30517578125,-0.54931640625,-0.0419921875,-0.9072265625,0.5234375
1258,0.0,0.30517578125,-0.48828125,-0.0419921875,-0.90869140625,0.52099609375
1259,0.1220703125,0.30517578125,-0.48828125,-0.04150390625,-0.90576171875,0.5244140625
1260,0.1220703125,0.30517578125,-0.48828125,-0.04296875,-0.90478515625,0.5224609375
1261,0.06103515625,0.3662109375,-0.48828125,-0.04248046875,-0.9072265625,0.5244140625
1262,0.1220703125,0.3662109375,-0.42724609375,-0.04052734375,-0.90576171875,0.52490234375
1263,0.1220703125,0.3662109375,-0.48828125,-0.04150390625,-0.9052734375,0.5244140625
1264,0.06103515625,0.244140625,-0.6103515625,-0.03955078125,-0.90625,0.5224609375
1265,0.18310546875,0.30517578125,-0.54931640625,-0.0419921875,-0.90380859375,0.52294921875
1266,0.0,0.30517578125,-0.48828125,-0.0439453125,-0.90380859375,0.52197265625
1267,0.1220703125,0.244140625,-0.54931640625,-0.0400390625,-0.9052734375,0.52392578125
1268,0.06103515625,0.18310546875,-0.54931640625,-0.0400390625,-0.904296875,0.5263671875
1269,0.1220703125,0.1220703125,-0.6103515625,-0.0419921875,-0.90673828125,0.5205078125
1270,0.1220703125,0.18310546875,-0.54931640625,-0.04248046875,-0.90478515625,0.5224609375
1271,-0.1220703125,0.06103515625,-0.54931640625,-0.04248046875,-0.90673828125,0.5234375
1272,-0.18310546875,0.18310546875,-0.54931640625,-0.04052734375,-0.90673828125,0.5234375
1273,0.0,0.1220703125,-0.48828125,-0.04052734375,-0.904296875,0.52734375
1274,0.06103515625,0.18310546875,-0.48828125,-0.03955078125,-0.9072265625,0.52294921875
1275,-0.06103515625,0.244140625,-0.48828125,-0.04052734375,-0.90478515625,0.52392578125
1276,-0.06103515625,0.18310546875,-0.48828125,-0.04052734375,-0.9072265625,0.52392578125
1277,-0.06103515625,0.18310546875,-0.42724609375,-0.03857421875,-0.90869140625,0.52197265625
1278,-0.244140625,0.30517578125,-0.48828125,-0.04345703125,-0.9072265625,0.52490234375
1279,-0.1220703125,0.244140625,-0.48828125,-0.0400390625,-0.90478515625,0.52490234375
1280,-0.1220703125,0.244140625,-0.54931640625,-0.041015625,-0.90625,0.52392578125
1281,-0.06103515625,0.244140625,-0.54931640625,-0.04150390625,-0.9072265625,0.5244140625
1282,-0.1220703125,0.244140625,-0.54931640625,-0.04052734375,-0.90576171875,0.5224609375
1283,-0.42724609375,0.1220703125,-0.54931640625,-0.04150390625,-0.90478515625,0.52587890625
1284,-0.54931640625,0.1220703125,-0.48828125,-0.0419921875,-0.908203125,0.52392578125
1285,-0.3662109375,0.18310546875,-0.54931640625,-0.041015625,-0.90625,0.51953125
1286,-0.30517578125,0.244140625,-0.6103515625,-0.0380859375,-0.90478515625,0.52099609375
1287,-0.244140625,0.244140625,-0.6103515625,-0.03857421875,-0.9033203125,0.5244140625
1288,-0.18310546875,0.244140625,-0.48828125,-0.041015625,-0.90478515625,0.5244140625
1289,-0.18310546875,0.3662109375,-0.48828125,-0.04248046875,-0.90576171875,0.5263671875
1290,-0.1220703125,0.42724609375,-0.48828125,-0.04296875,-0.90576171875,0.5234375
1291,-0.06103515625,0.3662109375,-0.3662109375,-0.03955078125,-0.90576171875,0.52294921875
1292,-0.244140625,0.3662109375,-0.42724609375,-0.04052734375,-0.90966796875,0.51806640625
1293,-0.18310546875,0.3662109375,-0.48828125,-0.04296875,-0.90771484375,0.5224609375
1294,-0.18310546875,0.3662109375,-0.54931640625,-0.0419921875,-0.9052734375,0.52294921875
1295,-0.30517578125,0.42724609375,-0.48828125,-0.0419921875,-0.90673828125,0.521484375
1296,-0.244140625,0.48828125,-0.48828125,-0.041015625,-0.9072265625,0.5234375
1297,-0.1220703125,0.42724609375,-0.54931640625,-0.0400390625,-0.9072265625,0.52294921875
1298,-0.06103515625,0.42724609375,-0.48828125,-0.03955078125,-0.90673828125,0.5224609375
1299,0.0,0.42724609375,-0.48828125,-0.0390625,-0.9033203125,0.5234375
1300,-0.06103515625,0.48828125,-0.48828125,-0.0400390625,-0.90576171875,0.52294921875
1301,-0.18310546875,0.48828125,-0.48828125,-0.0400390625,-0.90625,0.52294921875
1302,-0.06103515625,0.3662109375,-0.48828125,-0.04150390625,-0.9072265625,0.5224609375
1303,0.0,0.42724609375,-0.48828125,-0.0419921875,-0.90625,0.52392578125
1304,-0.06103515625,0.30517578125,-0.6103515625,-0.04345703125,-0.90625,0.52294921875
1305,-0.244140625,0.30517578125,-0.54931640625,-0.0419921875,-0.9052734375,0.52490234375
1306,-0.244140625,0.244140625,-0.54931640625,-0.04150390625,-0.90478515625,0.525390625
1307,-0.244140625,0.3662109375,-0.42724609375,-0.04150390625,-0.908203125,0.5244140625
1308,-0.244140625,0.3662109375,-0.42724609375,-0.0400390625,-0.90576171875,0.5263671875
1309,-0.18310546875,0.42724609375,-0.3662109375,-0.04150390625,-0.9052734375,0.52197265625
1310,-0.18310546875,0.3662109375,-0.30517578125,-0.04150390625,-0.9052734375,0.5224609375
1311,-0.18310546875,0.42724609375,-0.3662109375,-0.041015625,-0.9052734375,0.52587890625
1312,-0.42724609375,0.42724609375,-0.48828125,-0.04150390625,-0.90283203125,0.52490234375
1313,-0.6103515625,0.48828125,-0.3662109375,-0.04248046875,-0.90478515625,0.52490234375
1314,-0.732421875,0.54931640625,-0.42724609375,-0.04052734375,-0.90576171875,0.52294921875
1315,-0.54931640625,0.48828125,-0.42724609375,-0.0419921875,-0.90771484375,0.52294921875
1316,-0.54931640625,0.54931640625,-0.42724609375,-0.0439453125,-0.9033203125,0.5224609375
1317,-0.54931640625,0.54931640625,-0.42724609375,-0.04345703125,-0.90478515625,0.5263671875
1318,-0.6103515625,0.732421875,-0.42724609375,-0.04345703125,-0.90673828125,0.52197265625
1319,-0.79345703125,0.6103515625,-0.30517578125,-0.04248046875,-0.9033203125,0.52783203125
1320,-0.9765625,0.67138671875,-0.3662109375,-0.04345703125,-0.908203125,0.5205078125
1321,-0.91552734375,0.79345703125,-0.30517578125,-0.04248046875,-0.9052734375,0.521484375
1322,-1.03759765625,0.8544921875,-0.3662109375,-0.0419921875,-0.904296875,0.51953125
1323,-1.0986328125,0.79345703125,-0.3662109375,-0.0458984375,-0.90625,0.521484375
1324,-1.15966796875,0.732421875,-0.3662109375,-0.04345703125,-0.908203125,0.521484375
1325,-0.9765625,0.67138671875,-0.48828125,-0.0419921875,-0.9091796875,0.51904296875
1326,-0.67138671875,0.6103515625,-0.42724609375,-0.04248046875,-0.904296875,0.5234375
1327,-0.732421875,0.54931640625,-0.3662109375,-0.0419921875,-0.90576171875,0.51708984375
1328,-0.67138671875,0.48828125,-0.42724609375,-0.04150390625,-0.90771484375,0.51416015625
1329,-0.42724609375,0.48828125,-0.3662109375,-0.041015625,-0.904296875,0.5205078125
1330,-0.54931640625,0.48828125,-0.42724609375,-0.0419921875,-0.90625,0.5166015625
1331,-0.30517578125,0.48828125,-0.3662109375,-0.0400390625,-0.9072265625,0.52197265625
1332,-0.3662109375,0.48828125,-0.30517578125,-0.03857421875,-0.90576171875,0.52392578125
1333,-0.732421875,0.54931640625,-0.3662109375,-0.04248046875,-0.904296875,0.5205078125
1334,-0.732421875,0.48828125,-0.42724609375,-0.04150390625,-0.90771484375,0.52294921875
1335,-0.67138671875,0.54931640625,-0.42724609375,-0.0400390625,-0.90673828125,0.52197265625
1336,-0.8544921875,0.48828125,-0.42724609375,-0.041015625,-0.90673828125,0.52294921875
1337,-1.0986328125,0.54931640625,-0.42724609375,-0.0419921875,-0.9052734375,0.52099609375
1338,-1.15966796875,0.48828125,-0.3662109375,-0.0419921875,-0.9052734375,0.521484375
1339,-1.0986328125,0.48828125,-0.3662109375,-0.0400390625,-0.90673828125,0.5185546875
1340,-1.220703125,0.54931640625,-0.3662109375,-0.04248046875,-0.90380859375,0.52392578125
1341,-1.3427734375,0.30517578125,-0.3662109375,-0.04345703125,-0.90771484375,0.51904296875
1342,-0.8544921875,0.244140625,-0.48828125,-0.04638671875,-0.91064453125,0.5166015625
1343,-0.79345703125,0.1220703125,-0.54931640625,-0.04248046875,-0.90966796875,0.5185546875
1344,-0.732421875,0.18310546875,-0.6103515625,-0.0419921875,-0.908203125,0.521484375
1345,-0.8544921875,0.06103515625,-0.54931640625,-0.04052734375,-0.90576171875,0.52490234375
1346,-1.52587890625,0.1220703125,-0.54931640625,-0.041015625,-0.908203125,0.51708984375
1347,-1.28173828125,0.1220703125,-0.42724609375,-0.0400390625,-0.908203125,0.51513671875
1348,-0.732421875,0.18310546875,-0.48828125,-0.04150390625,-0.90771484375,0.51513671875
1349,-0.732421875,0.1220703125,-0.42724609375,-0.04296875,-0.908203125,0.5166015625
1350,-0.54931640625,0.0,-0.54931640625,-0.04345703125,-0.9091796875,0.51611328125
1351,-0.48828125,-0.06103515625,-0.6103515625,-0.03857421875,-0.908203125,0.521484375
1352,-0.48828125,0.0,-0.6103515625,-0.04150390625,-0.9072265625,0.521484375
1353,-0.54931640625,-0.1220703125,-0.54931640625,-0.04248046875,-0.90625,0.51708984375
1354,-0.67138671875,-0.06103515625,-0.54931640625,-0.0390625,-0.90966796875,0.51611328125
1355,-1.03759765625,-0.06103515625,-0.48828125,-0.041015625,-0.90966796875,0.51953125
1356,-0.54931640625,-0.18310546875,-0.48828125,-0.04248046875,-0.9072265625,0.5166015625
1357,-0.30517578125,0.06103515625,-0.48828125,-0.04150390625,-0.90576171875,0.52197265625
1358,-1.15966796875,-0.06103515625,-0.48828125,-0.04052734375,-0.90771484375,0.52099609375
1359,-1.0986328125,0.0,-0.48828125,-0.03955078125,-0.90869140625,0.517578125
1360,-0.9765625,0.18310546875,-0.48828125,-0.0419921875,-0.90771484375,0.52099609375
1361,-1.708984375,0.1220703125,-0.48828125,-0.0400390625,-0.908203125,0.5205078125
1362,-1.5869140625,0.30517578125,-0.54931640625,-0.0400390625,-0.90869140625,0.5205078125
1363,-2.38037109375,0.30517578125,-0.48828125,-0.03955078125,-0.90771484375,0.51611328125
1364,-2.44140625,0.30517578125,-0.42724609375,-0.041015625,-0.90673828125,0.5185546875
1365,-2.13623046875,0.18310546875,-0.42724609375,-0.04296875,-0.91064453125,0.51171875
1366,-1.89208984375,0.1220703125,-0.48828125,-0.04345703125,-0.90966796875,0.515625
1367,-1.708984375,0.0,-0.48828125,-0.0390625,-0.90625,0.51904296875
1368,-2.13623046875,-0.06103515625,-0.42724609375,-0.04052734375,-0.91162109375,0.515625
1369,-1.5869140625,-0.06103515625,-0.3662109375,-0.04296875,-0.90966796875,0.51171875
1370,-1.46484375,0.0,-0.48828125,-0.04296875,-0.9130859375,0.5048828125
1371,-0.48828125,-0.30517578125,-0.54931640625,-0.0419921875,-0.9140625,0.5087890625
1372,-0.244140625,-0.54931640625,-0.6103515625,-0.03857421875,-0.9111328125,0.5146484375
1373,0.06103515625,-0.6103515625,-0.54931640625,-0.041015625,-0.91064453125,0.51708984375
1374,-0.1220703125,-0.6103515625,-0.3662109375,-0.041015625,-0.90966796875,0.51953125
1375,0.30517578125,-0.42724609375,-0.54931640625,-0.04248046875,-0.91015625,0.5126953125
1376,-0.18310546875,-0.6103515625,-0.6103515625,-0.04248046875,-0.90966796875,0.51611328125
1377,0.1220703125,-0.67138671875,-0.54931640625,-0.0400390625,-0.908203125,0.5126953125
1378,-0.1220703125,-0.67138671875,-0.42724609375,-0.04052734375,-0.91064453125,0.51123046875
1379,0.54931640625,-0.6103515625,-0.48828125,-0.04052734375,-0.9091796875,0.51513671875
1380,0.732421875,-0.54931640625,-0.54931640625,-0.04345703125,-0.9033203125,0.525390625
1381,-0.732421875,-0.6103515625,-0.6103515625,-0.0419921875,-0.9111328125,0.5126953125
1382,-0.42724609375,-0.6103515625,-0.67138671875,-0.0419921875,-0.9072265625,0.5224609375
1383,-1.89208984375,-0.67138671875,-0.67138671875,-0.04296875,-0.9111328125,0.5166015625
1384,-1.3427734375,-0.732421875,-0.6103515625,-0.03857421875,-0.912109375,0.509765625
1385,-1.15966796875,-0.79345703125,-0.67138671875,-0.03857421875,-0.91259765625,0.51025390625
1386,-0.42724609375,-0.91552734375,-0.54931640625,-0.041015625,-0.90771484375,0.515625
1387,-0.54931640625,-0.9765625,-0.54931640625,-0.041015625,-0.91162109375,0.50830078125
1388,0.30517578125,-1.03759765625,-0.67138671875,-0.0390625,-0.9111328125,0.50927734375
1389,0.3662109375,-1.0986328125,-0.6103515625,-0.03955078125,-0.908203125,0.51513671875
1390,0.3662109375,-1.220703125,-0.67138671875,-0.041015625,-0.90869140625,0.5146484375
1391,0.0,-1.5869140625,-0.79345703125,-0.0400390625,-0.91064453125,0.5126953125
1392,0.06103515625,-1.64794921875,-0.732421875,-0.0400390625,-0.9091796875,0.51171875
1393,0.06103515625,-1.953125,-0.79345703125,-0.04052734375,-0.9111328125,0.513671875
1394,-0.18310546875,-2.44140625,-0.79345703125,-0.03564453125,-0.91357421875,0.51416015625
1395,0.9765625,-2.44140625,-0.732421875,-0.03857421875,-0.91015625,0.51220703125
1396,1.77001953125,-2.44140625,-0.6103515625,-0.041015625,-0.9072265625,0.51416015625
1397,1.708984375,-3.41796875,-0.67138671875,-0.04150390625,-0.9033203125,0.5185546875
1398,1.46484375,-4.33349609375,-0.732421875,-0.04296875,-0.90478515625,0.51806640625
1399,-0.06103515625,-5.4931640625,-0.9765625,-0.04296875,-0.9033203125,0.52294921875
1400,-1.28173828125,-6.9580078125,-1.15966796875,-0.04150390625,-0.9033203125,0.521484375
1401,-2.3193359375,-7.6904296875,-1.3427734375,-0.0390625,-0.9111328125,0.5126953125
1402,-2.197265625,-7.14111328125,-1.52587890625,-0.03173828125,-0.91796875,0.5048828125
1403,-1.0986328125,-5.615234375,-1.3427734375,-0.02880859375,-0.9169921875,0.50830078125
1404,-0.30517578125,-3.96728515625,-1.03759765625,-0.0283203125,-0.916015625,0.51513671875
1405,0.54931640625,-2.74658203125,-0.91552734375,-0.03173828125,-0.91650390625,0.50732421875
1406,0.9765625,-1.52587890625,-0.732421875,-0.0322265625,-0.9111328125,0.5185546875
1407,0.9765625,-0.48828125,-0.79345703125,-0.0322265625,-0.90966796875,0.515625
1408,0.6103515625,0.06103515625,-0.79345703125,-0.03466796875,-0.90771484375,0.51904296875
1409,0.1220703125,0.18310546875,-0.732421875,-0.03369140625,-0.90869140625,0.5185546875
