n_samples,gyr_x,gyr_y,gyr_z,acc_x,acc_y,acc_z
0,-3.5400390625,-1.52587890625,-9.46044921875,-0.04052734375,-1.02685546875,0.07421875
1,-4.82177734375,-2.0751953125,-9.3994140625,-0.01611328125,-1.03271484375,0.07373046875
2,-5.55419921875,-3.5400390625,-8.056640625,-0.0498046875,-1.02978515625,0.046875
3,-5.79833984375,-6.04248046875,-9.521484375,-0.0244140625,-1.03076171875,0.048828125
4,-7.01904296875,-5.79833984375,-8.1787109375,-0.03173828125,-1.0283203125,0.0419921875
5,-8.30078125,-5.43212890625,-7.75146484375,-0.0625,-1.03125,0.02197265625
6,-7.62939453125,-10.43701171875,-9.521484375,-0.05126953125,-1.03125,0.03369140625
7,-7.080078125,-11.65771484375,-11.77978515625,-0.0126953125,-1.033203125,0.0576171875
8,-6.9580078125,-7.87353515625,-12.63427734375,-0.00146484375,-1.0322265625,0.04736328125
9,-8.36181640625,-4.638671875,-8.72802734375,-0.0283203125,-1.03515625,0.0205078125
10,-8.544921875,-3.72314453125,-7.14111328125,-0.015625,-1.03076171875,0.0361328125
11,-8.544921875,-4.638671875,-6.53076171875,-0.04248046875,-1.02685546875,0.03759765625
12,-9.1552734375,-6.9580078125,-7.6904296875,-0.02734375,-1.03515625,0.0517578125
13,-9.94873046875,-7.14111328125,-7.99560546875,-0.00146484375,-1.03369140625,0.04833984375
14,-11.16943359375,-4.2724609375,-7.2021484375,0.0,-1.0341796875,0.04248046875
15,-11.5966796875,-2.01416015625,-5.9814453125,-0.0185546875,-1.0380859375,0.02392578125
16,-10.009765625,-2.3193359375,-6.8359375,-0.0380859375,-1.03271484375,0.02197265625
17,-10.19287109375,-1.708984375,-9.94873046875,-0.021484375,-1.03125,0.04052734375
18,-12.39013671875,2.44140625,-9.3994140625,-0.01318359375,-1.0380859375,0.02392578125
19,-13.24462890625,3.2958984375,-5.859375,-0.03271484375,-1.046875,0.0
20,-10.68115234375,0.48828125,-7.32421875,-0.001953125,-1.0322265625,0.0244140625
21,-11.1083984375,2.685546875,-8.544921875,0.00244140625,-1.033203125,0.03173828125
22,-11.23046875,4.0283203125,-7.62939453125,0.00341796875,-1.03466796875,0.02587890625
23,-10.43701171875,2.38037109375,-6.34765625,0.00830078125,-1.0302734375,0.03857421875
24,-9.94873046875,2.99072265625,-6.53076171875,0.00390625,-1.02587890625,0.0234375
25,-10.009765625,1.8310546875,-5.859375,0.01708984375,-1.03955078125,0.001953125
26,-7.568359375,3.60107421875,-5.2490234375,-0.02783203125,-1.0244140625,-0.0166015625
27,-8.60595703125,3.5400390625,-6.103515625,0.00341796875,-1.03955078125,-0.01123046875
28,-6.8359375,6.40869140625,-5.859375,-0.0078125,-1.02978515625,-0.0166015625
29,-7.26318359375,6.4697265625,-5.92041015625,-0.0068359375,-1.04296875,-0.01611328125
30,-6.2255859375,7.62939453125,-5.31005859375,-0.00146484375,-1.037109375,-0.01611328125
31,-5.126953125,8.72802734375,-5.7373046875,0.01953125,-1.01953125,0.0029296875
32,-4.8828125,8.72802734375,-5.92041015625,0.03271484375,-1.0126953125,-0.01318359375
33,-4.5166015625,8.60595703125,-4.82177734375,0.0107421875,-1.0205078125,-0.03662109375
34,-3.7841796875,7.75146484375,-4.39453125,0.01416015625,-1.021484375,-0.02978515625
35,-2.50244140625,6.28662109375,-3.47900390625,0.021484375,-1.0205078125,-0.0107421875
36,-1.40380859375,4.33349609375,-2.13623046875,0.01708984375,-1.02294921875,-0.0126953125
37,-0.244140625,2.50244140625,-1.220703125,0.0029296875,-1.0361328125,-0.02392578125
38,1.708984375,0.67138671875,-0.48828125,0.00830078125,-1.03955078125,-0.025390625
39,3.84521484375,-0.244140625,0.42724609375,0.017578125,-1.03515625,-0.0107421875
40,5.55419921875,0.67138671875,1.5869140625,0.01806640625,-1.0322265625,0.0009765625
41,6.65283203125,1.28173828125,2.50244140625,0.0029296875,-1.0302734375,0.015625
42,7.2021484375,-0.8544921875,3.173828125,0.0009765625,-1.03271484375,0.0244140625
43,7.4462890625,-3.35693359375,3.90625,0.0009765625,-1.03515625,0.00830078125
44,7.87353515625,-5.92041015625,4.39453125,0.0087890625,-1.03125,0.01318359375
45,8.1787109375,-7.080078125,4.94384765625,0.01220703125,-1.02490234375,0.01220703125
46,8.23974609375,-8.11767578125,5.67626953125,0.00732421875,-1.0302734375,0.0068359375
47,8.7890625,-8.6669921875,6.40869140625,0.00048828125,-1.033203125,0.00048828125
48,9.27734375,-8.48388671875,6.89697265625,-0.0029296875,-1.03125,-0.00537109375
49,9.33837890625,-7.01904296875,7.568359375,-0.0087890625,-1.03173828125,0.001953125
50,9.46044921875,-6.77490234375,7.75146484375,-0.00634765625,-1.03662109375,0.0009765625
51,9.70458984375,-5.67626953125,8.48388671875,0.0009765625,-1.025390625,0.01708984375
52,8.85009765625,-5.31005859375,8.6669921875,-0.00537109375,-1.03125,0.02490234375
53,8.30078125,-5.55419921875,9.3994140625,0.00830078125,-1.0283203125,0.041015625
54,6.77490234375,-3.90625,10.31494140625,-0.03515625,-1.03369140625,0.0107421875
55,7.75146484375,-9.58251953125,8.60595703125,-0.015625,-1.046875,0.009765625
56,10.1318359375,-8.48388671875,9.58251953125,0.01123046875,-1.02734375,0.04296875
57,7.9345703125,-3.72314453125,10.31494140625,-0.0166015625,-1.033203125,0.02001953125
58,8.4228515625,-2.13623046875,10.3759765625,-0.0205078125,-1.02978515625,0.0234375
59,8.30078125,-3.23486328125,8.72802734375,-0.03466796875,-1.03564453125,0.0
60,8.9111328125,0.67138671875,9.58251953125,-0.0009765625,-1.0244140625,0.0263671875
61,7.38525390625,3.5400390625,9.09423828125,-0.0654296875,-1.0302734375,0.0
62,8.1787109375,0.732421875,6.7138671875,-0.037109375,-1.03564453125,0.0458984375
63,7.14111328125,3.662109375,6.2255859375,-0.02880859375,-1.0302734375,0.0556640625
64,4.5166015625,5.06591796875,6.77490234375,-0.04052734375,-1.03125,0.05419921875
65,3.2958984375,4.08935546875,6.103515625,-0.05224609375,-1.0322265625,0.0419921875
66,2.685546875,1.03759765625,4.150390625,-0.041015625,-1.033203125,0.0439453125
67,2.01416015625,0.79345703125,3.0517578125,-0.0439453125,-1.02978515625,0.03759765625
68,1.46484375,-0.06103515625,1.8310546875,-0.03955078125,-1.0302734375,0.033203125
69,0.9765625,-0.3662109375,0.9765625,-0.04296875,-1.03271484375,0.0283203125
70,1.15966796875,-1.0986328125,0.244140625,-0.0380859375,-1.03662109375,0.03271484375
71,1.40380859375,-0.91552734375,-0.1220703125,-0.0283203125,-1.03515625,0.0341796875
72,1.52587890625,0.30517578125,-0.1220703125,-0.03271484375,-1.03857421875,0.0341796875
73,1.89208984375,1.03759765625,-0.30517578125,-0.0302734375,-1.03759765625,0.03125
74,2.38037109375,1.64794921875,-0.18310546875,-0.025390625,-1.0341796875,0.0361328125
75,2.5634765625,2.25830078125,0.0,-0.02783203125,-1.0322265625,0.0322265625
76,3.0517578125,1.28173828125,0.06103515625,-0.0283203125,-1.0322265625,0.0322265625
77,3.2958984375,0.67138671875,-0.06103515625,-0.02197265625,-1.033203125,0.0361328125
78,3.173828125,1.708984375,1.03759765625,-0.01025390625,-1.03076171875,0.04931640625
79,2.62451171875,3.84521484375,2.685546875,-0.02880859375,-1.0302734375,0.0517578125
80,2.86865234375,3.662109375,1.953125,-0.02880859375,-1.03466796875,0.048828125
81,3.173828125,1.708984375,2.50244140625,-0.01123046875,-1.0341796875,0.05078125
82,3.662109375,2.197265625,3.60107421875,-0.02880859375,-1.03271484375,0.03955078125
83,3.60107421875,2.50244140625,3.7841796875,-0.02001953125,-1.0283203125,0.0390625
84,3.0517578125,2.74658203125,5.126953125,-0.05078125,-1.029296875,0.03076171875
85,3.7841796875,-0.244140625,3.0517578125,-0.0166015625,-1.0341796875,0.044921875
86,3.173828125,1.3427734375,4.39453125,-0.02392578125,-1.0302734375,0.04736328125
87,2.3193359375,1.28173828125,6.4697265625,-0.0341796875,-1.03076171875,0.05712890625
88,2.5634765625,0.91552734375,5.06591796875,-0.0322265625,-1.02880859375,0.0634765625
89,1.708984375,0.48828125,5.0048828125,-0.01171875,-1.03125,0.064453125
90,0.48828125,1.953125,8.6669921875,-0.0419921875,-1.029296875,0.04541015625
91,0.244140625,1.40380859375,7.4462890625,-0.072265625,-1.0302734375,0.03564453125
92,0.732421875,0.42724609375,3.23486328125,-0.05615234375,-1.03515625,0.03076171875
93,0.732421875,-1.220703125,3.173828125,-0.0556640625,-1.0361328125,0.0380859375
94,0.67138671875,-0.91552734375,3.11279296875,-0.048828125,-1.0302734375,0.0439453125
95,0.42724609375,-0.06103515625,2.5634765625,-0.0380859375,-1.03271484375,0.05224609375
96,0.06103515625,0.91552734375,3.35693359375,-0.04052734375,-1.03564453125,0.04736328125
97,-0.244140625,1.77001953125,4.638671875,-0.05322265625,-1.03125,0.04443359375
98,0.06103515625,0.8544921875,3.72314453125,-0.048828125,-1.02685546875,0.0458984375
99,0.42724609375,0.48828125,1.953125,-0.04345703125,-1.02490234375,0.0439453125
100,0.30517578125,0.3662109375,1.15966796875,-0.05078125,-1.02880859375,0.03955078125
101,-0.06103515625,-0.79345703125,1.15966796875,-0.0546875,-1.03125,0.0361328125
102,-0.06103515625,-1.8310546875,1.15966796875,-0.0458984375,-1.03125,0.0380859375
103,-0.06103515625,-1.708984375,1.15966796875,-0.0478515625,-1.0302734375,0.0439453125
104,-0.1220703125,-2.197265625,0.91552734375,-0.05126953125,-1.029296875,0.03955078125
105,-0.1220703125,-3.662109375,0.6103515625,-0.04833984375,-1.0283203125,0.0390625
106,-0.3662109375,-5.126953125,0.48828125,-0.05078125,-1.02685546875,0.0341796875
107,-0.732421875,-7.8125,0.244140625,-0.05224609375,-1.0263671875,0.041015625
108,-1.220703125,-10.498046875,-0.42724609375,-0.05859375,-1.02783203125,0.04052734375
109,-1.64794921875,-12.5732421875,-1.03759765625,-0.05517578125,-1.0302734375,0.03515625
110,-1.8310546875,-13.12255859375,-1.5869140625,-0.05029296875,-1.03125,0.05078125
111,-2.01416015625,-12.26806640625,-1.89208984375,-0.04248046875,-1.0341796875,0.0546875
112,-1.8310546875,-10.25390625,-1.708984375,-0.04150390625,-1.03466796875,0.041015625
113,-1.46484375,-7.87353515625,-1.5869140625,-0.04150390625,-1.03466796875,0.0419921875
114,-1.220703125,-5.31005859375,-1.3427734375,-0.03955078125,-1.0361328125,0.048828125
115,-0.91552734375,-3.173828125,-1.220703125,-0.03564453125,-1.03271484375,0.05078125
116,-0.8544921875,-0.9765625,-1.0986328125,-0.0419921875,-1.03466796875,0.0478515625
117,-0.91552734375,-0.06103515625,-1.03759765625,-0.0478515625,-1.03564453125,0.04296875
118,-0.732421875,0.54931640625,-1.0986328125,-0.04345703125,-1.03515625,0.04541015625
119,-0.79345703125,1.15966796875,-1.28173828125,-0.04736328125,-1.02978515625,0.0439453125
120,-0.9765625,1.40380859375,-1.708984375,-0.05419921875,-1.03076171875,0.04150390625
121,-1.220703125,1.46484375,-2.13623046875,-0.04736328125,-1.02978515625,0.04296875
122,-1.5869140625,1.77001953125,-2.38037109375,-0.0419921875,-1.02978515625,0.04248046875
123,-1.708984375,1.708984375,-2.3193359375,-0.0400390625,-1.0302734375,0.0478515625
124,-1.89208984375,1.52587890625,-2.25830078125,-0.0400390625,-1.0322265625,0.048828125
125,-2.0751953125,1.40380859375,-2.13623046875,-0.0498046875,-1.03271484375,0.04345703125
126,-1.953125,0.0,-2.44140625,-0.044921875,-1.0302734375,0.0419921875
127,-2.13623046875,-0.732421875,-2.5634765625,-0.0390625,-1.029296875,0.04638671875
128,-2.86865234375,-0.54931640625,-2.38037109375,-0.0439453125,-1.03076171875,0.048828125
129,-3.11279296875,-1.46484375,-2.50244140625,-0.0361328125,-1.03125,0.0478515625
130,-3.11279296875,-1.46484375,-2.25830078125,-0.04345703125,-1.03173828125,0.0341796875
131,-2.685546875,-2.0751953125,-2.44140625,-0.04443359375,-1.03173828125,0.0322265625
132,-2.44140625,-2.5634765625,-2.62451171875,-0.041015625,-1.029296875,0.0322265625
133,-2.74658203125,-2.86865234375,-2.685546875,-0.0419921875,-1.0283203125,0.03466796875
134,-2.9296875,-3.90625,-2.74658203125,-0.037109375,-1.02783203125,0.04296875
135,-3.23486328125,-4.33349609375,-2.685546875,-0.04150390625,-1.0322265625,0.041015625
136,-2.9296875,-5.06591796875,-3.0517578125,-0.03125,-1.03369140625,0.04541015625
137,-2.99072265625,-4.82177734375,-2.5634765625,-0.037109375,-1.03369140625,0.04296875
138,-3.2958984375,-5.31005859375,-2.3193359375,-0.03857421875,-1.03369140625,0.04150390625
139,-3.23486328125,-5.2490234375,-2.01416015625,-0.0400390625,-1.0322265625,0.0322265625
140,-2.74658203125,-5.37109375,-2.01416015625,-0.0419921875,-1.0341796875,0.0283203125
141,-2.38037109375,-4.82177734375,-2.13623046875,-0.03515625,-1.033203125,0.03076171875
142,-2.38037109375,-3.35693359375,-1.708984375,-0.0263671875,-1.03173828125,0.03662109375
143,-2.3193359375,-2.25830078125,-1.0986328125,-0.0390625,-1.03515625,0.033203125
144,-1.52587890625,-3.5400390625,-0.9765625,-0.03271484375,-1.03369140625,0.03466796875
145,-1.15966796875,-2.9296875,-0.67138671875,-0.03515625,-1.033203125,0.03564453125
146,-0.91552734375,-2.25830078125,-0.42724609375,-0.03271484375,-1.03466796875,0.03466796875
147,-0.67138671875,-1.220703125,-0.30517578125,-0.03515625,-1.03369140625,0.029296875
148,-0.3662109375,-0.42724609375,-0.244140625,-0.0361328125,-1.03369140625,0.029296875
149,0.1220703125,0.91552734375,-0.18310546875,-0.0400390625,-1.037109375,0.02978515625
150,0.48828125,2.01416015625,-0.244140625,-0.0458984375,-1.03662109375,0.02978515625
151,1.03759765625,2.685546875,-0.48828125,-0.0361328125,-1.03466796875,0.03125
152,1.15966796875,4.33349609375,-0.42724609375,-0.02978515625,-1.0283203125,0.0458984375
153,0.79345703125,5.31005859375,-0.1220703125,-0.03271484375,-1.03271484375,0.04541015625
154,0.79345703125,5.79833984375,-0.06103515625,-0.0361328125,-1.03466796875,0.037109375
155,1.15966796875,5.92041015625,-0.244140625,-0.04541015625,-1.03515625,0.0322265625
156,1.3427734375,5.18798828125,-0.6103515625,-0.044921875,-1.029296875,0.0283203125
157,1.15966796875,4.33349609375,-1.03759765625,-0.04052734375,-1.0234375,0.03662109375
158,0.79345703125,3.96728515625,-1.5869140625,-0.03662109375,-1.0263671875,0.04150390625
159,0.30517578125,3.60107421875,-1.8310546875,-0.03759765625,-1.0302734375,0.0400390625
160,0.0,2.99072265625,-1.89208984375,-0.0458984375,-1.03076171875,0.03857421875
161,0.06103515625,2.0751953125,-2.25830078125,-0.046875,-1.03369140625,0.03466796875
162,0.244140625,1.220703125,-2.44140625,-0.0361328125,-1.03466796875,0.033203125
163,0.42724609375,1.64794921875,-2.25830078125,-0.03125,-1.03466796875,0.0341796875
164,0.67138671875,2.3193359375,-2.0751953125,-0.03759765625,-1.03466796875,0.03125
165,0.9765625,2.44140625,-1.953125,-0.0361328125,-1.033203125,0.0341796875
166,1.28173828125,2.74658203125,-1.953125,-0.0341796875,-1.03564453125,0.03515625
167,1.52587890625,3.72314453125,-1.708984375,-0.03125,-1.03369140625,0.03662109375
168,1.64794921875,4.08935546875,-1.52587890625,-0.0322265625,-1.033203125,0.03857421875
169,1.52587890625,4.57763671875,-1.15966796875,-0.037109375,-1.033203125,0.037109375
170,1.89208984375,3.90625,-1.0986328125,-0.03955078125,-1.03369140625,0.03271484375
171,1.8310546875,3.72314453125,-1.220703125,-0.0361328125,-1.0322265625,0.03662109375
172,2.0751953125,4.150390625,-1.3427734375,-0.04150390625,-1.03125,0.03662109375
173,1.89208984375,3.72314453125,-1.64794921875,-0.0400390625,-1.03369140625,0.04296875
174,1.46484375,3.90625,-1.64794921875,-0.03125,-1.03271484375,0.04296875
175,0.9765625,3.41796875,-1.40380859375,-0.0302734375,-1.0302734375,0.04833984375
176,0.54931640625,2.8076171875,-0.9765625,-0.02783203125,-1.02685546875,0.0517578125
177,-0.30517578125,1.953125,-0.732421875,-0.033203125,-1.03076171875,0.04833984375
178,-0.54931640625,0.79345703125,-0.732421875,-0.04150390625,-1.03173828125,0.04638671875
179,-0.79345703125,-0.42724609375,-0.9765625,-0.0439453125,-1.03369140625,0.037109375
180,-1.220703125,-0.6103515625,-1.0986328125,-0.03515625,-1.03466796875,0.03955078125
181,-1.15966796875,0.244140625,-0.9765625,-0.0341796875,-1.03662109375,0.0400390625
182,-0.79345703125,0.6103515625,-1.03759765625,-0.033203125,-1.0361328125,0.0322265625
183,-0.30517578125,1.15966796875,-1.220703125,-0.03125,-1.03076171875,0.033203125
184,-0.1220703125,2.50244140625,-1.220703125,-0.03515625,-1.033203125,0.02880859375
185,0.3662109375,3.2958984375,-1.40380859375,-0.03955078125,-1.0341796875,0.03466796875
186,0.54931640625,4.08935546875,-1.8310546875,-0.04345703125,-1.0361328125,0.03076171875
187,0.8544921875,3.72314453125,-2.25830078125,-0.03271484375,-1.0341796875,0.03662109375
188,0.79345703125,3.47900390625,-2.3193359375,-0.03125,-1.02978515625,0.044921875
189,0.30517578125,3.41796875,-2.197265625,-0.0380859375,-1.02783203125,0.03857421875
190,-0.18310546875,1.953125,-2.25830078125,-0.03271484375,-1.029296875,0.04345703125
191,-0.3662109375,0.91552734375,-2.25830078125,-0.02734375,-1.029296875,0.0498046875
192,-0.6103515625,0.79345703125,-2.197265625,-0.0244140625,-1.03271484375,0.0439453125
193,-0.54931640625,1.03759765625,-1.89208984375,-0.0263671875,-1.033203125,0.04345703125
194,-0.6103515625,1.46484375,-1.64794921875,-0.03662109375,-1.03564453125,0.03271484375
195,-0.3662109375,1.28173828125,-1.77001953125,-0.0361328125,-1.033203125,0.03125
196,-0.48828125,2.13623046875,-1.89208984375,-0.03466796875,-1.033203125,0.0302734375
197,-0.18310546875,2.38037109375,-2.13623046875,-0.03369140625,-1.0341796875,0.029296875
198,0.3662109375,2.50244140625,-2.5634765625,-0.02880859375,-1.0322265625,0.03271484375
199,0.67138671875,2.74658203125,-2.5634765625,-0.02734375,-1.03271484375,0.03857421875
200,0.79345703125,3.41796875,-2.38037109375,-0.02783203125,-1.03125,0.0400390625
201,0.79345703125,4.0283203125,-2.25830078125,-0.02978515625,-1.033203125,0.03759765625
202,1.220703125,4.150390625,-2.25830078125,-0.02734375,-1.033203125,0.03759765625
203,1.220703125,4.39453125,-2.13623046875,-0.0244140625,-1.033203125,0.0419921875
204,1.15966796875,4.638671875,-1.89208984375,-0.02685546875,-1.0341796875,0.04248046875
205,1.15966796875,4.33349609375,-1.708984375,-0.0263671875,-1.03125,0.0400390625
206,1.0986328125,4.150390625,-1.5869140625,-0.025390625,-1.02978515625,0.04150390625
207,1.03759765625,3.90625,-1.52587890625,-0.0283203125,-1.0283203125,0.0380859375
208,0.8544921875,3.23486328125,-1.40380859375,-0.03125,-1.02880859375,0.03955078125
209,0.732421875,2.62451171875,-1.46484375,-0.03173828125,-1.03125,0.0419921875
210,0.54931640625,1.953125,-1.46484375,-0.0244140625,-1.03173828125,0.04345703125
211,0.54931640625,2.197265625,-1.220703125,-0.02490234375,-1.0322265625,0.0400390625
212,0.42724609375,2.25830078125,-1.15966796875,-0.03076171875,-1.0361328125,0.03955078125
213,0.67138671875,1.953125,-1.28173828125,-0.0263671875,-1.03125,0.03955078125
214,0.79345703125,2.3193359375,-1.28173828125,-0.02490234375,-1.03173828125,0.037109375
215,0.9765625,2.44140625,-1.3427734375,-0.029296875,-1.0322265625,0.0400390625
216,0.8544921875,2.44140625,-1.3427734375,-0.0283203125,-1.03515625,0.04345703125
217,0.732421875,2.50244140625,-1.220703125,-0.0283203125,-1.0341796875,0.04541015625
218,0.8544921875,2.62451171875,-1.220703125,-0.02685546875,-1.03466796875,0.04248046875
219,0.8544921875,2.62451171875,-1.0986328125,-0.02587890625,-1.0341796875,0.04248046875
220,0.9765625,2.74658203125,-0.9765625,-0.0244140625,-1.03271484375,0.041015625
221,0.91552734375,3.0517578125,-0.9765625,-0.0283203125,-1.03076171875,0.03857421875
222,0.9765625,2.9296875,-0.9765625,-0.03076171875,-1.03173828125,0.0390625
223,0.9765625,2.5634765625,-1.15966796875,-0.029296875,-1.03369140625,0.04052734375
224,0.91552734375,2.13623046875,-1.28173828125,-0.02978515625,-1.0322265625,0.04248046875
225,0.732421875,1.46484375,-1.52587890625,-0.029296875,-1.0322265625,0.04296875
226,0.48828125,0.91552734375,-1.64794921875,-0.025390625,-1.02978515625,0.046875
227,0.244140625,0.54931640625,-1.52587890625,-0.02685546875,-1.0322265625,0.046875
228,0.06103515625,0.18310546875,-1.40380859375,-0.02587890625,-1.03125,0.04345703125
229,0.0,-0.244140625,-1.0986328125,-0.02880859375,-1.0322265625,0.041015625
230,0.0,-0.30517578125,-1.220703125,-0.02783203125,-1.033203125,0.0400390625
231,0.06103515625,0.244140625,-1.52587890625,-0.0302734375,-1.02880859375,0.0341796875
232,0.18310546875,-0.06103515625,-1.708984375,-0.03076171875,-1.03125,0.037109375
233,0.42724609375,-0.48828125,-2.01416015625,-0.02783203125,-1.03564453125,0.03955078125
234,0.54931640625,-0.48828125,-2.3193359375,-0.02490234375,-1.033203125,0.04052734375
235,0.6103515625,-0.244140625,-2.38037109375,-0.0205078125,-1.03125,0.04248046875
236,0.6103515625,0.244140625,-2.0751953125,-0.02001953125,-1.03125,0.041015625
237,0.54931640625,0.42724609375,-1.77001953125,-0.02294921875,-1.03271484375,0.0419921875
238,0.67138671875,0.3662109375,-1.8310546875,-0.0244140625,-1.0322265625,0.041015625
239,0.67138671875,-0.06103515625,-1.89208984375,-0.02587890625,-1.03173828125,0.04150390625
240,0.54931640625,-0.42724609375,-1.953125,-0.025390625,-1.03271484375,0.044921875
241,0.30517578125,-1.28173828125,-1.89208984375,-0.02490234375,-1.033203125,0.0458984375
242,0.30517578125,-1.220703125,-1.953125,-0.0234375,-1.0302734375,0.04541015625
243,0.18310546875,-1.28173828125,-1.953125,-0.01708984375,-1.0322265625,0.05419921875
244,0.1220703125,-1.03759765625,-1.8310546875,-0.0185546875,-1.033203125,0.05126953125
245,0.06103515625,-0.9765625,-1.5869140625,-0.02001953125,-1.02978515625,0.04296875
246,0.0,-1.0986328125,-1.28173828125,-0.01953125,-1.029296875,0.04296875
247,-0.06103515625,-1.0986328125,-1.0986328125,-0.01806640625,-1.02880859375,0.0419921875
248,0.0,-1.0986328125,-1.0986328125,-0.021484375,-1.02880859375,0.041015625
249,0.1220703125,-1.40380859375,-1.0986328125,-0.0224609375,-1.02880859375,0.04248046875
250,0.06103515625,-1.46484375,-0.9765625,-0.02099609375,-1.03125,0.04736328125
251,0.1220703125,-1.220703125,-0.67138671875,-0.01806640625,-1.0341796875,0.052734375
252,0.244140625,-0.48828125,-0.30517578125,-0.01611328125,-1.0322265625,0.0478515625
253,0.42724609375,0.1220703125,0.1220703125,-0.01806640625,-1.03271484375,0.04150390625
254,0.6103515625,0.8544921875,0.30517578125,-0.02294921875,-1.0341796875,0.04150390625
255,0.9765625,1.3427734375,0.42724609375,-0.0224609375,-1.037109375,0.04541015625
256,1.220703125,1.708984375,0.48828125,-0.0224609375,-1.037109375,0.04443359375
257,1.15966796875,1.77001953125,0.54931640625,-0.02490234375,-1.0322265625,0.046875
258,1.03759765625,1.3427734375,0.42724609375,-0.02490234375,-1.033203125,0.05029296875
259,0.8544921875,0.732421875,0.48828125,-0.02587890625,-1.0341796875,0.046875
260,0.6103515625,0.18310546875,0.42724609375,-0.02197265625,-1.03271484375,0.05078125
261,0.30517578125,0.0,0.42724609375,-0.0244140625,-1.0322265625,0.052734375
262,-0.18310546875,0.244140625,0.30517578125,-0.0244140625,-1.03271484375,0.052734375
263,-0.3662109375,0.30517578125,0.30517578125,-0.025390625,-1.03173828125,0.046875
264,-0.48828125,0.1220703125,0.18310546875,-0.025390625,-1.033203125,0.046875
265,-0.54931640625,0.30517578125,0.18310546875,-0.02490234375,-1.02978515625,0.0458984375
266,-0.67138671875,0.3662109375,0.18310546875,-0.02490234375,-1.0302734375,0.04541015625
267,-0.8544921875,0.244140625,0.0,-0.0244140625,-1.03076171875,0.0400390625
268,-0.79345703125,0.244140625,-0.06103515625,-0.02490234375,-1.0322265625,0.0439453125
269,-1.0986328125,0.48828125,-0.1220703125,-0.0224609375,-1.03271484375,0.048828125
270,-1.220703125,0.732421875,-0.06103515625,-0.0234375,-1.0302734375,0.04736328125
271,-1.28173828125,0.3662109375,0.0,-0.02490234375,-1.0341796875,0.0478515625
272,-1.220703125,0.1220703125,0.0,-0.02490234375,-1.03466796875,0.04443359375
273,-1.28173828125,0.1220703125,-0.06103515625,-0.02587890625,-1.03173828125,0.044921875
274,-1.40380859375,0.06103515625,-0.1220703125,-0.02685546875,-1.03125,0.04443359375
275,-1.52587890625,-0.30517578125,-0.1220703125,-0.025390625,-1.03125,0.04443359375
276,-1.64794921875,-0.732421875,-0.244140625,-0.02197265625,-1.03271484375,0.0458984375
277,-1.46484375,-1.0986328125,-0.1220703125,-0.0244140625,-1.0322265625,0.04443359375
278,-1.3427734375,-1.220703125,-0.1220703125,-0.0244140625,-1.03515625,0.04248046875
279,-1.15966796875,-1.03759765625,-0.18310546875,-0.0244140625,-1.03564453125,0.04248046875
280,-1.15966796875,-0.91552734375,0.0,-0.02490234375,-1.03662109375,0.03955078125
281,-1.03759765625,-0.91552734375,-0.06103515625,-0.02392578125,-1.033203125,0.03857421875
282,-0.732421875,-0.9765625,-0.244140625,-0.02587890625,-1.03125,0.037109375
283,-0.6103515625,-0.8544921875,-0.18310546875,-0.0263671875,-1.03369140625,0.03564453125
284,-0.48828125,-0.9765625,-0.3662109375,-0.02880859375,-1.03369140625,0.0361328125
285,-0.244140625,-0.91552734375,-0.6103515625,-0.02685546875,-1.03369140625,0.03955078125
286,-0.18310546875,-0.54931640625,-0.54931640625,-0.025390625,-1.0322265625,0.0419921875
287,-0.244140625,-0.42724609375,-0.6103515625,-0.02587890625,-1.03173828125,0.04296875
288,-0.244140625,-0.48828125,-0.6103515625,-0.02587890625,-1.03125,0.04296875
289,-0.18310546875,-0.30517578125,-0.6103515625,-0.02734375,-1.0322265625,0.041015625
290,-0.244140625,-0.48828125,-0.67138671875,-0.02490234375,-1.03271484375,0.041015625
291,-0.30517578125,-0.54931640625,-0.732421875,-0.02685546875,-1.033203125,0.04296875
292,-0.3662109375,-0.6103515625,-0.67138671875,-0.0263671875,-1.033203125,0.04296875
293,-0.42724609375,-0.732421875,-0.67138671875,-0.02392578125,-1.0341796875,0.0439453125
294,-0.6103515625,-0.9765625,-0.732421875,-0.025390625,-1.03271484375,0.0458984375
295,-0.8544921875,-1.28173828125,-0.732421875,-0.02685546875,-1.03369140625,0.0458984375
296,-0.9765625,-1.40380859375,-0.79345703125,-0.02490234375,-1.03369140625,0.0439453125
297,-1.0986328125,-1.5869140625,-0.8544921875,-0.02587890625,-1.033203125,0.0419921875
298,-1.220703125,-1.52587890625,-0.8544921875,-0.02783203125,-1.0361328125,0.04052734375
299,-1.15966796875,-1.28173828125,-0.91552734375,-0.02490234375,-1.03564453125,0.04052734375
300,-1.3427734375,-0.732421875,-0.91552734375,-0.02490234375,-1.03173828125,0.03759765625
301,-1.220703125,-0.732421875,-0.9765625,-0.0244140625,-1.0341796875,0.03857421875
302,-1.15966796875,-0.732421875,-1.03759765625,-0.0234375,-1.03271484375,0.0390625
303,-1.15966796875,-0.54931640625,-1.03759765625,-0.025390625,-1.0322265625,0.0380859375
304,-1.0986328125,-0.732421875,-0.9765625,-0.0205078125,-1.03173828125,0.03955078125
305,-1.28173828125,-0.6103515625,-0.9765625,-0.02294921875,-1.03125,0.041015625
306,-1.28173828125,-0.42724609375,-0.8544921875,-0.0224609375,-1.0322265625,0.0419921875
307,-1.3427734375,-0.1220703125,-0.67138671875,-0.02197265625,-1.0322265625,0.04296875
308,-1.40380859375,0.18310546875,-0.6103515625,-0.0224609375,-1.0322265625,0.0400390625
309,-1.28173828125,0.06103515625,-0.6103515625,-0.0234375,-1.0341796875,0.0400390625
310,-1.03759765625,0.06103515625,-0.67138671875,-0.025390625,-1.03369140625,0.03662109375
311,-0.8544921875,0.1220703125,-0.732421875,-0.0234375,-1.03271484375,0.037109375
312,-0.732421875,0.18310546875,-0.67138671875,-0.02392578125,-1.0302734375,0.03857421875
313,-0.79345703125,0.18310546875,-0.67138671875,-0.0263671875,-1.03271484375,0.037109375
314,-0.732421875,0.244140625,-0.67138671875,-0.02490234375,-1.03515625,0.03662109375
315,-0.54931640625,0.244140625,-0.732421875,-0.0244140625,-1.03369140625,0.03759765625
316,-0.48828125,0.244140625,-0.6103515625,-0.0234375,-1.033203125,0.0380859375
317,-0.3662109375,0.3662109375,-0.6103515625,-0.0205078125,-1.03271484375,0.0361328125
318,-0.30517578125,0.732421875,-0.54931640625,-0.021484375,-1.033203125,0.037109375
319,-0.1220703125,0.8544921875,-0.54931640625,-0.02392578125,-1.03515625,0.0380859375
320,-0.1220703125,0.79345703125,-0.6103515625,-0.02490234375,-1.03466796875,0.0390625
321,-0.18310546875,0.54931640625,-0.6103515625,-0.02294921875,-1.03271484375,0.03857421875
322,0.0,0.1220703125,-0.6103515625,-0.0234375,-1.03369140625,0.03857421875
323,0.0,-0.06103515625,-0.6103515625,-0.0244140625,-1.0322265625,0.03759765625
324,-0.06103515625,-0.18310546875,-0.48828125,-0.0234375,-1.03125,0.0419921875
325,-0.1220703125,-0.244140625,-0.42724609375,-0.02099609375,-1.03271484375,0.04541015625
326,-0.1220703125,-0.244140625,-0.244140625,-0.02294921875,-1.0322265625,0.04296875
327,-0.3662109375,-0.06103515625,-0.244140625,-0.02490234375,-1.03271484375,0.03955078125
328,-0.3662109375,-0.06103515625,-0.244140625,-0.02783203125,-1.03515625,0.03662109375
329,-0.244140625,0.0,-0.244140625,-0.02587890625,-1.033203125,0.0361328125
330,-0.1220703125,0.06103515625,-0.3662109375,-0.02587890625,-1.033203125,0.03662109375
331,0.1220703125,0.06103515625,-0.54931640625,-0.0234375,-1.03369140625,0.0380859375
332,0.06103515625,0.18310546875,-0.48828125,-0.0244140625,-1.0341796875,0.0380859375
333,0.06103515625,0.244140625,-0.42724609375,-0.0234375,-1.0341796875,0.0390625
334,0.1220703125,0.30517578125,-0.3662109375,-0.0205078125,-1.0322265625,0.0419921875
335,0.06103515625,0.42724609375,-0.42724609375,-0.0234375,-1.033203125,0.0390625
336,0.0,0.48828125,-0.30517578125,-0.02587890625,-1.033203125,0.03759765625
337,0.1220703125,0.67138671875,-0.30517578125,-0.02294921875,-1.0322265625,0.0361328125
338,0.244140625,0.79345703125,-0.244140625,-0.02294921875,-1.0302734375,0.03564453125
339,0.18310546875,0.91552734375,-0.3662109375,-0.0263671875,-1.0322265625,0.03662109375
340,0.1220703125,0.8544921875,-0.3662109375,-0.02294921875,-1.02978515625,0.03955078125
341,0.244140625,0.9765625,-0.30517578125,-0.02392578125,-1.03125,0.0419921875
342,0.0,0.9765625,-0.3662109375,-0.0244140625,-1.03125,0.041015625
343,0.0,0.8544921875,-0.30517578125,-0.02490234375,-1.03076171875,0.041015625
344,0.0,0.48828125,-0.30517578125,-0.0224609375,-1.0322265625,0.03857421875
345,-0.06103515625,0.42724609375,-0.30517578125,-0.02490234375,-1.0322265625,0.0380859375
346,-0.18310546875,0.3662109375,-0.244140625,-0.02734375,-1.03125,0.0380859375
347,-0.18310546875,0.3662109375,-0.30517578125,-0.02392578125,-1.03076171875,0.0400390625
348,-0.1220703125,0.54931640625,-0.18310546875,-0.0244140625,-1.03369140625,0.0390625
349,0.0,0.6103515625,-0.18310546875,-0.02490234375,-1.03369140625,0.03955078125
350,0.1220703125,0.732421875,-0.06103515625,-0.0234375,-1.0322265625,0.04150390625
351,0.18310546875,0.732421875,0.0,-0.02392578125,-1.0302734375,0.04052734375
352,0.0,0.79345703125,0.0,-0.02392578125,-1.0283203125,0.03955078125
353,-0.06103515625,0.732421875,0.06103515625,-0.025390625,-1.0322265625,0.04150390625
354,-0.244140625,0.244140625,0.1220703125,-0.021484375,-1.03271484375,0.04248046875
355,-0.30517578125,0.06103515625,0.30517578125,-0.02490234375,-1.0322265625,0.04248046875
356,-0.244140625,-0.244140625,0.30517578125,-0.02587890625,-1.03271484375,0.0390625
357,-0.244140625,-0.54931640625,0.244140625,-0.02392578125,-1.03125,0.037109375
358,-0.30517578125,-0.54931640625,0.30517578125,-0.02197265625,-1.0302734375,0.041015625
359,-0.6103515625,-0.732421875,0.30517578125,-0.0244140625,-1.03076171875,0.04541015625
360,-0.67138671875,-0.8544921875,0.3662109375,-0.02490234375,-1.03369140625,0.0419921875
361,-0.6103515625,-0.9765625,0.48828125,-0.02587890625,-1.03271484375,0.0341796875
362,-0.3662109375,-0.732421875,0.48828125,-0.02197265625,-1.033203125,0.03662109375
363,-0.18310546875,-0.1220703125,0.48828125,-0.02099609375,-1.03125,0.03662109375
364,-0.244140625,0.1220703125,0.6103515625,-0.0224609375,-1.0322265625,0.04150390625
365,-0.3662109375,0.3662109375,0.732421875,-0.0234375,-1.02978515625,0.0419921875
366,-0.3662109375,0.244140625,0.9765625,-0.0244140625,-1.0302734375,0.04345703125
367,-0.48828125,-0.3662109375,1.03759765625,-0.025390625,-1.03271484375,0.04541015625
368,-0.6103515625,-0.6103515625,1.15966796875,-0.02734375,-1.0322265625,0.037109375
369,-0.54931640625,-0.6103515625,1.220703125,-0.0283203125,-1.03125,0.03564453125
370,-0.30517578125,-0.48828125,1.220703125,-0.0283203125,-1.03271484375,0.03662109375
371,-0.06103515625,-0.6103515625,1.15966796875,-0.02734375,-1.03271484375,0.0361328125
372,0.06103515625,-0.67138671875,0.9765625,-0.0302734375,-1.033203125,0.0341796875
373,0.18310546875,-0.54931640625,0.91552734375,-0.02734375,-1.03076171875,0.0380859375
374,0.30517578125,0.0,0.8544921875,-0.02685546875,-1.03076171875,0.03759765625
375,0.3662109375,0.3662109375,0.91552734375,-0.0244140625,-1.03125,0.03564453125
376,0.42724609375,0.79345703125,1.03759765625,-0.025390625,-1.0322265625,0.04052734375
377,0.42724609375,1.0986328125,1.15966796875,-0.0302734375,-1.03564453125,0.0390625
378,0.732421875,1.28173828125,1.15966796875,-0.03076171875,-1.0341796875,0.03271484375
379,0.91552734375,1.220703125,1.03759765625,-0.03271484375,-1.03076171875,0.03369140625
380,0.9765625,1.3427734375,0.91552734375,-0.03466796875,-1.0322265625,0.03955078125
381,1.0986328125,1.220703125,0.79345703125,-0.03369140625,-1.0341796875,0.0361328125
382,1.40380859375,1.28173828125,0.6103515625,-0.03125,-1.0341796875,0.03564453125
383,1.52587890625,1.3427734375,0.48828125,-0.029296875,-1.03564453125,0.04345703125
384,1.52587890625,1.708984375,0.48828125,-0.03173828125,-1.03369140625,0.04248046875
385,1.3427734375,1.64794921875,0.30517578125,-0.03564453125,-1.029296875,0.03955078125
386,1.220703125,1.708984375,0.18310546875,-0.0322265625,-1.0322265625,0.04248046875
387,0.9765625,2.01416015625,0.18310546875,-0.0341796875,-1.03271484375,0.044921875
388,0.79345703125,1.220703125,0.0,-0.03076171875,-1.0302734375,0.046875
389,0.42724609375,0.79345703125,0.1220703125,-0.0302734375,-1.03125,0.0458984375
390,0.3662109375,0.18310546875,0.18310546875,-0.03125,-1.0302734375,0.0400390625
391,0.3662109375,-0.18310546875,0.0,-0.03759765625,-1.0341796875,0.03857421875
392,0.6103515625,-0.6103515625,-0.1220703125,-0.0341796875,-1.03173828125,0.03759765625
393,0.67138671875,-0.30517578125,-0.244140625,-0.03076171875,-1.03271484375,0.0341796875
394,0.9765625,0.0,-0.30517578125,-0.03076171875,-1.029296875,0.0390625
395,1.15966796875,0.244140625,-0.3662109375,-0.0302734375,-1.02880859375,0.03955078125
396,1.15966796875,0.42724609375,-0.3662109375,-0.02783203125,-1.03125,0.04443359375
397,1.0986328125,0.54931640625,-0.18310546875,-0.0302734375,-1.0302734375,0.04248046875
398,1.15966796875,0.18310546875,-0.18310546875,-0.03271484375,-1.02880859375,0.0419921875
399,0.9765625,0.30517578125,-0.1220703125,-0.02978515625,-1.03173828125,0.04052734375
400,0.79345703125,0.54931640625,-0.1220703125,-0.02783203125,-1.033203125,0.041015625
401,0.67138671875,0.48828125,-0.06103515625,-0.03076171875,-1.0302734375,0.04296875
402,0.732421875,0.42724609375,0.0,-0.02978515625,-1.03125,0.0439453125
403,0.79345703125,-0.18310546875,0.0,-0.03173828125,-1.03564453125,0.04296875
404,0.91552734375,-0.67138671875,-0.1220703125,-0.03076171875,-1.03369140625,0.04248046875
405,0.9765625,-0.48828125,-0.18310546875,-0.0302734375,-1.02978515625,0.04296875
406,0.9765625,-0.06103515625,-0.18310546875,-0.02783203125,-1.0322265625,0.04638671875
407,0.732421875,0.3662109375,-0.1220703125,-0.0341796875,-1.03369140625,0.0419921875
408,0.91552734375,0.6103515625,-0.1220703125,-0.03125,-1.03125,0.041015625
409,1.28173828125,0.54931640625,-0.3662109375,-0.02783203125,-1.02978515625,0.04248046875
410,1.0986328125,1.03759765625,-0.3662109375,-0.02880859375,-1.0322265625,0.048828125
411,0.8544921875,1.46484375,-0.244140625,-0.0322265625,-1.02978515625,0.046875
412,0.8544921875,1.3427734375,-0.30517578125,-0.03369140625,-1.02978515625,0.03955078125
413,1.15966796875,1.40380859375,-0.42724609375,-0.03173828125,-1.03076171875,0.0400390625
414,1.15966796875,1.5869140625,-0.54931640625,-0.0322265625,-1.03466796875,0.041015625
415,1.15966796875,1.5869140625,-0.6103515625,-0.0341796875,-1.0341796875,0.04443359375
416,1.28173828125,1.46484375,-0.8544921875,-0.037109375,-1.033203125,0.046875
417,1.40380859375,1.28173828125,-0.9765625,-0.03369140625,-1.03076171875,0.04736328125
418,1.3427734375,1.3427734375,-1.03759765625,-0.03173828125,-1.03125,0.04736328125
419,1.220703125,1.5869140625,-1.03759765625,-0.02880859375,-1.02978515625,0.046875
420,1.15966796875,1.77001953125,-1.0986328125,-0.033203125,-1.0322265625,0.04248046875
421,1.15966796875,1.40380859375,-1.15966796875,-0.03173828125,-1.03173828125,0.04443359375
422,1.28173828125,1.40380859375,-1.220703125,-0.029296875,-1.0302734375,0.04443359375
423,1.40380859375,1.3427734375,-1.220703125,-0.03125,-1.0302734375,0.0439453125
424,1.46484375,1.28173828125,-1.28173828125,-0.0302734375,-1.029296875,0.04443359375
425,1.46484375,1.3427734375,-1.40380859375,-0.0302734375,-1.029296875,0.0458984375
426,1.28173828125,1.3427734375,-1.3427734375,-0.02978515625,-1.03173828125,0.0478515625
427,1.0986328125,1.3427734375,-1.220703125,-0.029296875,-1.03173828125,0.0478515625
428,1.15966796875,1.3427734375,-1.0986328125,-0.0302734375,-1.03369140625,0.0478515625
429,1.3427734375,1.220703125,-1.15966796875,-0.0302734375,-1.03125,0.04833984375
430,1.220703125,1.28173828125,-0.9765625,-0.0283203125,-1.0322265625,0.04931640625
431,1.15966796875,1.40380859375,-0.9765625,-0.03125,-1.03271484375,0.05419921875
432,0.8544921875,1.15966796875,-0.91552734375,-0.0302734375,-1.0322265625,0.05224609375
433,0.67138671875,1.03759765625,-0.79345703125,-0.03076171875,-1.03369140625,0.04638671875
434,0.6103515625,1.03759765625,-0.79345703125,-0.033203125,-1.03271484375,0.0458984375
435,0.54931640625,0.8544921875,-1.03759765625,-0.03466796875,-1.033203125,0.0458984375
436,0.6103515625,0.67138671875,-1.15966796875,-0.03271484375,-1.0322265625,0.0458984375
437,0.54931640625,0.79345703125,-1.3427734375,-0.02734375,-1.029296875,0.05126953125
438,0.3662109375,0.9765625,-1.28173828125,-0.029296875,-1.0322265625,0.0546875
439,0.1220703125,0.79345703125,-1.15966796875,-0.02880859375,-1.033203125,0.05322265625
440,0.06103515625,0.91552734375,-1.15966796875,-0.0322265625,-1.03271484375,0.046875
441,0.1220703125,0.48828125,-1.0986328125,-0.0302734375,-1.0322265625,0.0498046875
442,0.06103515625,0.42724609375,-1.28173828125,-0.03125,-1.0302734375,0.048828125
443,0.06103515625,0.3662109375,-1.220703125,-0.0283203125,-1.0322265625,0.04638671875
444,0.244140625,0.54931640625,-1.220703125,-0.02490234375,-1.033203125,0.0478515625
445,0.48828125,1.03759765625,-1.15966796875,-0.02734375,-1.03369140625,0.05078125
446,0.6103515625,1.15966796875,-1.03759765625,-0.0244140625,-1.0322265625,0.04833984375
447,0.91552734375,1.40380859375,-0.8544921875,-0.02294921875,-1.02978515625,0.04638671875
448,1.15966796875,1.3427734375,-0.48828125,-0.02392578125,-1.03173828125,0.04833984375
449,1.0986328125,1.28173828125,-0.3662109375,-0.02587890625,-1.03173828125,0.05029296875
450,1.15966796875,1.0986328125,-0.1220703125,-0.0283203125,-1.03125,0.052734375
451,1.0986328125,0.732421875,0.06103515625,-0.02783203125,-1.029296875,0.05224609375
452,0.91552734375,0.79345703125,0.18310546875,-0.02783203125,-1.029296875,0.052734375
453,0.732421875,0.79345703125,0.244140625,-0.029296875,-1.0283203125,0.0537109375
454,0.6103515625,0.6103515625,0.244140625,-0.033203125,-1.033203125,0.05224609375
455,0.6103515625,0.54931640625,0.1220703125,-0.0322265625,-1.03662109375,0.05224609375
456,0.67138671875,0.8544921875,0.0,-0.03076171875,-1.03466796875,0.05126953125
457,0.67138671875,1.15966796875,0.0,-0.03076171875,-1.03369140625,0.04736328125
458,0.79345703125,1.5869140625,-0.1220703125,-0.03076171875,-1.03271484375,0.04931640625
459,0.54931640625,2.13623046875,-0.18310546875,-0.03173828125,-1.03173828125,0.04833984375
460,0.54931640625,2.3193359375,-0.3662109375,-0.0302734375,-1.03076171875,0.0478515625
461,0.6103515625,2.5634765625,-0.54931640625,-0.03125,-1.03466796875,0.0517578125
462,0.3662109375,2.8076171875,-0.6103515625,-0.03076171875,-1.0322265625,0.05322265625
463,0.54931640625,2.62451171875,-0.67138671875,-0.02587890625,-1.02978515625,0.0537109375
464,0.54931640625,2.86865234375,-0.6103515625,-0.0302734375,-1.0302734375,0.04931640625
465,0.42724609375,2.62451171875,-0.67138671875,-0.02978515625,-1.02978515625,0.05224609375
466,0.3662109375,2.3193359375,-0.67138671875,-0.0283203125,-1.03173828125,0.0517578125
467,0.30517578125,1.953125,-0.6103515625,-0.02783203125,-1.033203125,0.05126953125
468,0.48828125,1.46484375,-0.67138671875,-0.03076171875,-1.03173828125,0.05322265625
469,0.48828125,1.28173828125,-0.54931640625,-0.02734375,-1.03369140625,0.05126953125
470,0.6103515625,1.15966796875,-0.48828125,-0.02685546875,-1.033203125,0.05224609375
471,0.67138671875,1.0986328125,-0.48828125,-0.0302734375,-1.0322265625,0.052734375
472,0.8544921875,1.220703125,-0.42724609375,-0.03076171875,-1.03271484375,0.0498046875
473,0.79345703125,1.28173828125,-0.48828125,-0.029296875,-1.0302734375,0.052734375
474,0.91552734375,1.5869140625,-0.48828125,-0.029296875,-1.03173828125,0.05126953125
475,1.03759765625,1.40380859375,-0.54931640625,-0.03076171875,-1.03369140625,0.04736328125
476,1.0986328125,1.46484375,-0.54931640625,-0.029296875,-1.03076171875,0.05029296875
477,1.15966796875,1.708984375,-0.6103515625,-0.029296875,-1.0322265625,0.05126953125
478,1.15966796875,1.708984375,-0.67138671875,-0.0322265625,-1.03173828125,0.05126953125
479,0.91552734375,1.52587890625,-0.732421875,-0.029296875,-1.03271484375,0.0546875
480,0.79345703125,1.52587890625,-0.79345703125,-0.0302734375,-1.0322265625,0.05859375
481,0.48828125,1.220703125,-0.8544921875,-0.02978515625,-1.03076171875,0.0595703125
482,0.3662109375,1.15966796875,-0.8544921875,-0.0283203125,-1.03369140625,0.05224609375
483,0.3662109375,1.220703125,-0.732421875,-0.02880859375,-1.03271484375,0.05029296875
484,0.3662109375,0.9765625,-0.732421875,-0.029296875,-1.02978515625,0.052734375
485,0.244140625,0.79345703125,-0.67138671875,-0.02978515625,-1.03076171875,0.052734375
486,0.244140625,0.6103515625,-0.732421875,-0.0283203125,-1.03076171875,0.05322265625
487,0.3662109375,0.54931640625,-0.67138671875,-0.02783203125,-1.03125,0.052734375
488,0.3662109375,0.54931640625,-0.54931640625,-0.02685546875,-1.02978515625,0.05322265625
489,0.30517578125,0.3662109375,-0.54931640625,-0.0302734375,-1.03369140625,0.0537109375
490,0.30517578125,0.30517578125,-0.67138671875,-0.03076171875,-1.03662109375,0.05810546875
491,0.30517578125,0.54931640625,-0.79345703125,-0.029296875,-1.03173828125,0.0546875
492,0.3662109375,0.91552734375,-0.732421875,-0.02783203125,-1.029296875,0.052734375
493,0.30517578125,1.28173828125,-0.732421875,-0.02880859375,-1.0302734375,0.05224609375
494,0.3662109375,1.5869140625,-0.8544921875,-0.02685546875,-1.02783203125,0.04833984375
495,0.54931640625,2.13623046875,-0.8544921875,-0.0244140625,-1.02734375,0.05078125
496,0.6103515625,2.50244140625,-0.79345703125,-0.0244140625,-1.0283203125,0.05126953125
497,0.54931640625,2.9296875,-0.67138671875,-0.0224609375,-1.02783203125,0.05224609375
498,0.732421875,3.2958984375,-0.244140625,-0.0234375,-1.0302734375,0.05224609375
499,0.91552734375,3.41796875,-0.18310546875,-0.0263671875,-1.03125,0.0546875
500,0.9765625,3.35693359375,-0.1220703125,-0.03662109375,-1.03369140625,0.05419921875
501,1.03759765625,2.8076171875,-0.30517578125,-0.03955078125,-1.03369140625,0.05419921875
502,0.91552734375,2.13623046875,-0.54931640625,-0.0361328125,-1.03759765625,0.056640625
503,0.9765625,2.13623046875,-0.54931640625,-0.025390625,-1.033203125,0.05810546875
504,0.91552734375,2.5634765625,-0.3662109375,-0.02587890625,-1.02978515625,0.0595703125
505,0.9765625,2.99072265625,-0.1220703125,-0.02734375,-1.033203125,0.05419921875
506,1.03759765625,3.0517578125,0.06103515625,-0.0302734375,-1.03271484375,0.0546875
507,1.15966796875,3.23486328125,0.1220703125,-0.0283203125,-1.03369140625,0.0576171875
508,1.220703125,3.60107421875,0.06103515625,-0.0263671875,-1.03173828125,0.0556640625
509,1.64794921875,3.90625,0.18310546875,-0.02587890625,-1.02978515625,0.05517578125
510,1.77001953125,4.21142578125,0.3662109375,-0.02734375,-1.03125,0.05224609375
511,2.01416015625,4.39453125,0.54931640625,-0.02685546875,-1.0322265625,0.05419921875
512,2.38037109375,5.06591796875,0.67138671875,-0.0234375,-1.0341796875,0.06005859375
513,2.5634765625,5.7373046875,0.91552734375,-0.02734375,-1.0341796875,0.060546875
514,3.23486328125,5.37109375,1.03759765625,-0.03076171875,-1.03515625,0.05712890625
515,4.2724609375,3.7841796875,0.91552734375,-0.03857421875,-1.03466796875,0.04931640625
516,4.5166015625,3.47900390625,0.79345703125,-0.02294921875,-1.02880859375,0.05859375
517,3.23486328125,6.16455078125,1.15966796875,-0.03271484375,-1.033203125,0.05419921875
518,3.35693359375,5.67626953125,1.220703125,-0.0322265625,-1.0322265625,0.0595703125
519,3.47900390625,5.2490234375,1.0986328125,-0.03076171875,-1.03076171875,0.06298828125
520,3.662109375,4.5166015625,1.0986328125,-0.04345703125,-1.0341796875,0.05419921875
521,3.90625,2.5634765625,0.67138671875,-0.02978515625,-1.02685546875,0.06884765625
522,2.38037109375,4.21142578125,0.54931640625,-0.044921875,-1.0302734375,0.060546875
523,1.8310546875,2.5634765625,0.06103515625,-0.04345703125,-1.02783203125,0.064453125
524,1.220703125,1.77001953125,-0.244140625,-0.03369140625,-1.0302734375,0.064453125
525,0.91552734375,1.40380859375,-0.3662109375,-0.0322265625,-1.03076171875,0.06591796875
526,0.732421875,0.79345703125,-0.48828125,-0.03759765625,-1.033203125,0.0634765625
527,0.48828125,-0.1220703125,-0.732421875,-0.0400390625,-1.03076171875,0.06005859375
528,0.42724609375,-1.0986328125,-0.91552734375,-0.04150390625,-1.0302734375,0.05908203125
529,0.244140625,-2.50244140625,-1.15966796875,-0.0341796875,-1.03173828125,0.06494140625
530,0.1220703125,-3.173828125,-1.28173828125,-0.02978515625,-1.03125,0.0673828125
531,0.06103515625,-2.99072265625,-1.220703125,-0.0302734375,-1.02978515625,0.06640625
532,-0.1220703125,-2.86865234375,-1.0986328125,-0.0322265625,-1.03173828125,0.0615234375
533,-0.244140625,-2.86865234375,-1.0986328125,-0.0322265625,-1.0322265625,0.0625
534,-0.18310546875,-2.50244140625,-1.0986328125,-0.02978515625,-1.02978515625,0.0625
535,-0.1220703125,-2.13623046875,-1.15966796875,-0.02978515625,-1.02978515625,0.05908203125
536,0.0,-1.89208984375,-1.0986328125,-0.02880859375,-1.03125,0.0556640625
537,0.06103515625,-1.89208984375,-1.0986328125,-0.0302734375,-1.0283203125,0.05712890625
538,0.3662109375,-1.953125,-1.15966796875,-0.0322265625,-1.0283203125,0.0576171875
539,0.3662109375,-1.89208984375,-1.28173828125,-0.0322265625,-1.03076171875,0.060546875
540,0.1220703125,-2.25830078125,-1.28173828125,-0.02978515625,-1.02880859375,0.06591796875
541,-0.18310546875,-2.44140625,-1.15966796875,-0.03076171875,-1.0302734375,0.072265625
542,-0.54931640625,-2.62451171875,-1.03759765625,-0.03173828125,-1.029296875,0.06787109375
543,-0.732421875,-3.41796875,-1.03759765625,-0.02880859375,-1.02978515625,0.0693359375
544,-1.15966796875,-3.60107421875,-1.0986328125,-0.03369140625,-1.03125,0.06298828125
545,-1.3427734375,-3.96728515625,-1.15966796875,-0.03173828125,-1.03271484375,0.0634765625
546,-1.220703125,-3.7841796875,-1.0986328125,-0.02880859375,-1.03076171875,0.06494140625
547,-1.220703125,-3.173828125,-1.15966796875,-0.02587890625,-1.03076171875,0.0634765625
548,-1.52587890625,-2.0751953125,-0.9765625,-0.02490234375,-1.0302734375,0.0654296875
549,-1.5869140625,-1.0986328125,-0.79345703125,-0.0283203125,-1.03271484375,0.060546875
550,-1.03759765625,-0.8544921875,-0.732421875,-0.02734375,-1.03369140625,0.05908203125
551,-0.3662109375,-0.3662109375,-0.6103515625,-0.02587890625,-1.03173828125,0.06005859375
552,-0.244140625,0.42724609375,-0.42724609375,-0.0263671875,-1.0322265625,0.060546875
553,-0.06103515625,0.67138671875,-0.3662109375,-0.0302734375,-1.03076171875,0.06298828125
554,0.244140625,0.18310546875,-0.30517578125,-0.0283203125,-1.0302734375,0.0634765625
555,0.1220703125,-0.06103515625,-0.244140625,-0.0283203125,-1.0322265625,0.06591796875
556,0.06103515625,-0.732421875,-0.06103515625,-0.02685546875,-1.03076171875,0.06201171875
557,-0.06103515625,-1.28173828125,0.06103515625,-0.02685546875,-1.02978515625,0.06396484375
558,-0.06103515625,-1.52587890625,0.3662109375,-0.0224609375,-1.02734375,0.064453125
559,-0.1220703125,-1.77001953125,0.48828125,-0.02490234375,-1.02783203125,0.06103515625
560,-0.18310546875,-2.01416015625,0.54931640625,-0.03173828125,-1.02978515625,0.06396484375
561,-0.54931640625,-2.5634765625,0.30517578125,-0.04248046875,-1.03076171875,0.0625
562,-0.732421875,-3.60107421875,0.06103515625,-0.0390625,-1.03466796875,0.0595703125
563,-0.79345703125,-3.60107421875,-0.1220703125,-0.03369140625,-1.03515625,0.06494140625
564,-1.03759765625,-2.99072265625,-0.1220703125,-0.04296875,-1.0341796875,0.0625
565,-1.220703125,-3.41796875,-0.48828125,-0.0390625,-1.03662109375,0.05908203125
566,-1.03759765625,-3.41796875,-0.732421875,-0.02783203125,-1.033203125,0.06201171875
567,-1.0986328125,-2.3193359375,-0.67138671875,-0.02978515625,-1.0322265625,0.05810546875
568,-0.8544921875,-1.953125,-0.732421875,-0.0283203125,-1.029296875,0.0546875
569,-0.9765625,-1.46484375,-0.67138671875,-0.02880859375,-1.02734375,0.0576171875
570,-0.9765625,-1.40380859375,-0.67138671875,-0.0244140625,-1.029296875,0.06005859375
571,-0.732421875,-1.40380859375,-0.54931640625,-0.0234375,-1.02734375,0.06103515625
572,-0.67138671875,-1.708984375,-0.30517578125,-0.02783203125,-1.02978515625,0.05908203125
573,-0.54931640625,-1.953125,-0.30517578125,-0.0244140625,-1.02783203125,0.06103515625
574,-0.3662109375,-2.13623046875,-0.06103515625,-0.02001953125,-1.025390625,0.0654296875
575,-0.54931640625,-2.01416015625,0.244140625,-0.02197265625,-1.029296875,0.0703125
576,-0.3662109375,-1.220703125,0.48828125,-0.02734375,-1.0361328125,0.064453125
577,-0.1220703125,-0.8544921875,0.6103515625,-0.0302734375,-1.03857421875,0.05322265625
578,0.30517578125,-0.06103515625,0.67138671875,-0.0361328125,-1.03466796875,0.0556640625
579,0.67138671875,0.3662109375,0.6103515625,-0.0390625,-1.03564453125,0.05322265625
580,0.8544921875,0.48828125,0.3662109375,-0.0380859375,-1.03369140625,0.056640625
581,0.42724609375,0.1220703125,0.06103515625,-0.0625,-1.033203125,0.06005859375
582,-0.1220703125,-1.77001953125,-0.732421875,-0.04931640625,-1.037109375,0.05615234375
583,-0.18310546875,-1.8310546875,-0.9765625,-0.0302734375,-1.03515625,0.06494140625
584,-0.42724609375,-0.9765625,-0.91552734375,-0.0341796875,-1.03564453125,0.0654296875
585,-0.6103515625,-0.48828125,-0.8544921875,-0.03125,-1.0322265625,0.06005859375
586,-0.6103515625,-0.18310546875,-0.732421875,-0.02734375,-1.03076171875,0.06689453125
587,-1.03759765625,0.3662109375,-0.54931640625,-0.02734375,-1.02880859375,0.0634765625
588,-1.220703125,0.54931640625,-0.42724609375,-0.02685546875,-1.0263671875,0.060546875
589,-1.28173828125,0.67138671875,-0.3662109375,-0.02392578125,-1.025390625,0.06103515625
590,-1.40380859375,0.6103515625,-0.244140625,-0.02880859375,-1.02734375,0.05908203125
591,-1.5869140625,0.18310546875,-0.244140625,-0.03125,-1.0283203125,0.0595703125
592,-1.52587890625,0.0,-0.3662109375,-0.02978515625,-1.03076171875,0.064453125
593,-1.8310546875,-0.06103515625,-0.3662109375,-0.03857421875,-1.0341796875,0.06640625
594,-1.8310546875,-0.3662109375,-0.48828125,-0.0283203125,-1.0302734375,0.0654296875
595,-1.953125,0.1220703125,-0.3662109375,-0.03173828125,-1.0302734375,0.0576171875
596,-2.01416015625,0.1220703125,-0.48828125,-0.03955078125,-1.0322265625,0.04736328125
597,-1.708984375,-0.244140625,-0.79345703125,-0.037109375,-1.03125,0.05029296875
598,-1.40380859375,-0.42724609375,-1.0986328125,-0.03125,-1.03076171875,0.05419921875
599,-1.220703125,0.06103515625,-1.28173828125,-0.03271484375,-1.03076171875,0.0546875
600,-1.40380859375,0.54931640625,-1.40380859375,-0.03076171875,-1.029296875,0.0576171875
601,-1.64794921875,1.03759765625,-1.28173828125,-0.02490234375,-1.03173828125,0.0615234375
602,-1.5869140625,1.15966796875,-1.0986328125,-0.029296875,-1.0322265625,0.06005859375
603,-1.3427734375,0.79345703125,-0.9765625,-0.03173828125,-1.0361328125,0.06103515625
604,-1.28173828125,0.42724609375,-1.0986328125,-0.03662109375,-1.03369140625,0.056640625
605,-1.28173828125,-0.06103515625,-1.220703125,-0.0380859375,-1.0341796875,0.05224609375
606,-1.28173828125,-0.6103515625,-1.220703125,-0.03515625,-1.03125,0.05810546875
607,-1.708984375,-0.30517578125,-1.3427734375,-0.04052734375,-1.03369140625,0.05126953125
608,-1.46484375,-1.03759765625,-1.5869140625,-0.03125,-1.03271484375,0.05419921875
609,-1.3427734375,-1.15966796875,-1.64794921875,-0.02880859375,-1.02978515625,0.05908203125
610,-1.40380859375,-0.9765625,-1.64794921875,-0.02880859375,-1.02783203125,0.0576171875
611,-1.46484375,-0.54931640625,-1.64794921875,-0.03369140625,-1.03076171875,0.05078125
612,-1.52587890625,-0.18310546875,-1.708984375,-0.02978515625,-1.03173828125,0.05517578125
613,-1.5869140625,0.244140625,-1.77001953125,-0.03125,-1.0341796875,0.05322265625
614,-1.220703125,0.30517578125,-1.708984375,-0.0244140625,-1.0322265625,0.05517578125
615,-1.15966796875,0.732421875,-1.64794921875,-0.02490234375,-1.033203125,0.05419921875
616,-0.91552734375,0.732421875,-1.5869140625,-0.02392578125,-1.03271484375,0.05615234375
617,-0.91552734375,0.91552734375,-1.46484375,-0.02392578125,-1.02978515625,0.06103515625
618,-0.91552734375,0.91552734375,-1.28173828125,-0.02783203125,-1.0322265625,0.05712890625
619,-0.91552734375,0.54931640625,-1.28173828125,-0.0283203125,-1.0341796875,0.0517578125
620,-0.79345703125,0.732421875,-1.28173828125,-0.02783203125,-1.03369140625,0.05419921875
621,-0.79345703125,1.03759765625,-1.28173828125,-0.02783203125,-1.03466796875,0.0537109375
622,-0.42724609375,1.220703125,-1.15966796875,-0.0234375,-1.03369140625,0.05224609375
623,-0.18310546875,1.953125,-0.9765625,-0.0244140625,-1.0322265625,0.05615234375
624,0.0,2.5634765625,-0.91552734375,-0.02490234375,-1.02880859375,0.0517578125
625,0.244140625,2.86865234375,-0.79345703125,-0.02294921875,-1.02880859375,0.04833984375
626,0.48828125,3.41796875,-0.6103515625,-0.02294921875,-1.025390625,0.05517578125
627,0.6103515625,3.90625,-0.30517578125,-0.0185546875,-1.02685546875,0.05810546875
628,0.54931640625,4.0283203125,0.1220703125,-0.017578125,-1.02880859375,0.06298828125
629,0.42724609375,4.08935546875,0.54931640625,-0.0205078125,-1.0302734375,0.06591796875
630,0.42724609375,3.5400390625,0.8544921875,-0.02685546875,-1.03173828125,0.05859375
631,0.42724609375,2.8076171875,0.8544921875,-0.03515625,-1.0322265625,0.0556640625
632,0.42724609375,2.0751953125,0.54931640625,-0.04345703125,-1.0380859375,0.04833984375
633,0.67138671875,1.03759765625,0.06103515625,-0.0400390625,-1.0390625,0.04833984375
634,0.8544921875,0.06103515625,-0.30517578125,-0.0341796875,-1.0361328125,0.05615234375
635,0.732421875,0.06103515625,-0.48828125,-0.03271484375,-1.03369140625,0.0556640625
636,0.732421875,0.42724609375,-0.8544921875,-0.03369140625,-1.03466796875,0.05126953125
637,0.79345703125,0.67138671875,-0.9765625,-0.02880859375,-1.03125,0.05322265625
638,0.79345703125,1.3427734375,-1.0986328125,-0.03125,-1.03173828125,0.05419921875
639,0.67138671875,1.64794921875,-1.15966796875,-0.03466796875,-1.0341796875,0.052734375
640,0.42724609375,1.52587890625,-1.3427734375,-0.03955078125,-1.03271484375,0.0576171875
641,0.0,0.67138671875,-1.77001953125,-0.0419921875,-1.0361328125,0.05615234375
642,-0.244140625,-0.06103515625,-2.0751953125,-0.03564453125,-1.037109375,0.0546875
643,-0.48828125,-0.6103515625,-2.38037109375,-0.03955078125,-1.03271484375,0.0517578125
644,-0.79345703125,-1.708984375,-2.685546875,-0.03857421875,-1.03515625,0.044921875
645,-0.91552734375,-2.685546875,-2.86865234375,-0.025390625,-1.0322265625,0.05517578125
646,-1.220703125,-2.44140625,-2.8076171875,-0.02880859375,-1.03271484375,0.06005859375
647,-1.46484375,-2.50244140625,-2.86865234375,-0.03173828125,-1.03271484375,0.05712890625
648,-1.708984375,-3.35693359375,-2.99072265625,-0.0283203125,-1.0341796875,0.0537109375
649,-1.89208984375,-4.08935546875,-3.11279296875,-0.0224609375,-1.03173828125,0.05810546875
650,-1.953125,-3.41796875,-3.23486328125,-0.02490234375,-1.0322265625,0.0546875
651,-1.8310546875,-3.5400390625,-3.72314453125,-0.029296875,-1.02978515625,0.0537109375
652,-1.77001953125,-3.5400390625,-4.45556640625,-0.02392578125,-1.029296875,0.05712890625
653,-1.8310546875,-3.2958984375,-4.638671875,-0.013671875,-1.0302734375,0.06103515625
654,-2.25830078125,-2.38037109375,-3.173828125,-0.017578125,-1.02880859375,0.0595703125
655,-2.25830078125,-1.46484375,-2.99072265625,-0.0185546875,-1.02734375,0.0546875
656,-2.38037109375,-1.40380859375,-3.72314453125,-0.0244140625,-1.03125,0.05126953125
657,-2.197265625,-1.8310546875,-3.84521484375,-0.01806640625,-1.03076171875,0.056640625
658,-2.3193359375,-1.77001953125,-2.62451171875,-0.021484375,-1.03369140625,0.05517578125
659,-2.25830078125,-1.220703125,-2.62451171875,-0.0234375,-1.03076171875,0.05224609375
660,-2.44140625,-1.28173828125,-3.0517578125,-0.02294921875,-1.0283203125,0.0595703125
661,-2.62451171875,-2.01416015625,-4.638671875,-0.015625,-1.0283203125,0.05908203125
662,-2.86865234375,-1.77001953125,-4.33349609375,-0.0107421875,-1.03125,0.05810546875
663,-3.2958984375,-1.52587890625,-2.5634765625,-0.01953125,-1.03076171875,0.0546875
664,-3.47900390625,-1.953125,-2.50244140625,-0.01953125,-1.02978515625,0.05517578125
665,-3.35693359375,-1.77001953125,-4.5166015625,-0.0205078125,-1.02685546875,0.0537109375
666,-3.2958984375,-1.5869140625,-4.94384765625,0.00244140625,-1.029296875,0.0556640625
667,-3.5400390625,0.9765625,-2.44140625,-0.0107421875,-1.03369140625,0.04638671875
668,-3.173828125,1.5869140625,-1.77001953125,-0.01611328125,-1.03369140625,0.04638671875
669,-2.8076171875,2.3193359375,-1.5869140625,-0.01611328125,-1.03369140625,0.04150390625
670,-2.38037109375,2.86865234375,-1.3427734375,-0.01611328125,-1.033203125,0.04248046875
671,-1.953125,2.8076171875,-1.15966796875,-0.01806640625,-1.0341796875,0.04443359375
672,-1.64794921875,2.9296875,-1.15966796875,-0.015625,-1.033203125,0.03955078125
673,-1.28173828125,3.2958984375,-1.3427734375,-0.01513671875,-1.03271484375,0.041015625
674,-0.9765625,3.2958984375,-1.3427734375,-0.01416015625,-1.03125,0.04150390625
675,-0.67138671875,3.35693359375,-1.3427734375,-0.0146484375,-1.02734375,0.0498046875
676,-0.67138671875,3.23486328125,-1.220703125,-0.01708984375,-1.02978515625,0.05224609375
677,-0.79345703125,2.74658203125,-1.0986328125,-0.01611328125,-1.03125,0.0478515625
678,-0.8544921875,1.8310546875,-1.03759765625,-0.017578125,-1.03271484375,0.0478515625
679,-0.9765625,1.28173828125,-0.91552734375,-0.01904296875,-1.02978515625,0.048828125
680,-1.28173828125,1.28173828125,-1.03759765625,-0.01953125,-1.03125,0.04736328125
681,-1.3427734375,0.8544921875,-1.03759765625,-0.0166015625,-1.0322265625,0.04443359375
682,-1.52587890625,0.244140625,-0.9765625,-0.013671875,-1.03173828125,0.0458984375
683,-1.52587890625,-0.1220703125,-0.8544921875,-0.0146484375,-1.03271484375,0.046875
684,-1.40380859375,-0.3662109375,-0.91552734375,-0.0146484375,-1.0361328125,0.04345703125
685,-1.28173828125,0.1220703125,-1.03759765625,-0.01708984375,-1.0341796875,0.04443359375
686,-1.3427734375,-0.18310546875,-1.0986328125,-0.017578125,-1.03515625,0.04638671875
687,-1.28173828125,-0.244140625,-0.9765625,-0.01611328125,-1.03271484375,0.04736328125
688,-1.52587890625,0.18310546875,-0.9765625,-0.01708984375,-1.0341796875,0.04541015625
689,-1.64794921875,0.244140625,-1.15966796875,-0.015625,-1.0322265625,0.0478515625
690,-1.77001953125,0.42724609375,-1.220703125,-0.01416015625,-1.03076171875,0.04736328125
691,-1.953125,0.3662109375,-2.01416015625,-0.017578125,-1.02880859375,0.04736328125
692,-2.13623046875,0.244140625,-2.50244140625,-0.00732421875,-1.0322265625,0.04833984375
693,-2.13623046875,0.9765625,-1.3427734375,-0.01123046875,-1.03173828125,0.04296875
694,-2.13623046875,0.732421875,-0.79345703125,-0.0166015625,-1.029296875,0.0400390625
695,-2.25830078125,0.18310546875,-0.91552734375,-0.01513671875,-1.0283203125,0.0419921875
696,-2.0751953125,0.0,-0.79345703125,-0.0126953125,-1.03173828125,0.044921875
697,-1.89208984375,-0.1220703125,-0.48828125,-0.01611328125,-1.03125,0.0419921875
698,-1.8310546875,-0.30517578125,-0.42724609375,-0.0146484375,-1.03173828125,0.04052734375
699,-1.64794921875,-0.42724609375,-0.42724609375,-0.01171875,-1.03466796875,0.03857421875
700,-1.46484375,-0.3662109375,-0.30517578125,-0.0126953125,-1.033203125,0.0380859375
701,-1.40380859375,-0.1220703125,-0.30517578125,-0.01708984375,-1.03369140625,0.03564453125
702,-1.0986328125,-0.06103515625,-0.3662109375,-0.017578125,-1.03271484375,0.03662109375
703,-0.8544921875,0.06103515625,-0.3662109375,-0.013671875,-1.03173828125,0.0380859375
704,-0.732421875,0.48828125,-0.3662109375,-0.01318359375,-1.033203125,0.03857421875
705,-0.79345703125,0.67138671875,-0.3662109375,-0.013671875,-1.03271484375,0.04443359375
706,-0.91552734375,1.0986328125,-0.30517578125,-0.013671875,-1.033203125,0.0458984375
707,-0.91552734375,1.0986328125,-0.244140625,-0.01611328125,-1.0322265625,0.044921875
708,-1.15966796875,0.732421875,-0.30517578125,-0.0185546875,-1.0341796875,0.04052734375
709,-1.28173828125,0.0,-0.30517578125,-0.017578125,-1.03271484375,0.04248046875
710,-1.3427734375,-0.244140625,-0.3662109375,-0.01708984375,-1.03173828125,0.0400390625
711,-1.28173828125,-0.54931640625,-0.48828125,-0.01416015625,-1.033203125,0.041015625
712,-1.46484375,-0.79345703125,-0.48828125,-0.0146484375,-1.03271484375,0.0419921875
713,-1.28173828125,-0.9765625,-0.6103515625,-0.01416015625,-1.03125,0.033203125
714,-1.0986328125,-0.67138671875,-0.6103515625,-0.013671875,-1.03125,0.03125
715,-0.79345703125,-0.1220703125,-0.6103515625,-0.01513671875,-1.033203125,0.03369140625
716,-0.42724609375,0.54931640625,-0.67138671875,-0.015625,-1.03271484375,0.03564453125
717,-0.1220703125,1.03759765625,-0.67138671875,-0.01416015625,-1.033203125,0.03759765625
718,-0.244140625,1.3427734375,-0.6103515625,-0.015625,-1.03173828125,0.04248046875
719,-0.18310546875,1.220703125,-0.54931640625,-0.015625,-1.03271484375,0.0400390625
720,-0.18310546875,0.8544921875,-0.54931640625,-0.017578125,-1.0322265625,0.0380859375
721,-0.30517578125,0.3662109375,-0.6103515625,-0.01513671875,-1.0322265625,0.041015625
722,-0.3662109375,0.06103515625,-0.54931640625,-0.0126953125,-1.03076171875,0.0400390625
723,-0.42724609375,-0.06103515625,-0.48828125,-0.01513671875,-1.0302734375,0.0400390625
724,-0.42724609375,-0.18310546875,-0.54931640625,-0.01416015625,-1.033203125,0.04052734375
725,-0.3662109375,-0.42724609375,-0.48828125,-0.0166015625,-1.03271484375,0.03515625
726,-0.42724609375,-0.6103515625,-0.42724609375,-0.01904296875,-1.0322265625,0.03759765625
727,-0.48828125,-0.54931640625,-0.48828125,-0.0146484375,-1.0322265625,0.037109375
728,-0.3662109375,-0.18310546875,-0.54931640625,-0.01318359375,-1.03271484375,0.041015625
729,-0.244140625,0.18310546875,-0.42724609375,-0.013671875,-1.03173828125,0.03955078125
730,-0.244140625,0.18310546875,-0.42724609375,-0.0126953125,-1.03125,0.03759765625
731,-0.244140625,0.244140625,-0.42724609375,-0.01806640625,-1.033203125,0.03662109375
732,-0.06103515625,0.18310546875,-0.42724609375,-0.015625,-1.02978515625,0.037109375
733,-0.06103515625,0.06103515625,-0.48828125,-0.0146484375,-1.0341796875,0.03857421875
734,0.0,0.1220703125,-0.48828125,-0.01318359375,-1.033203125,0.03759765625
735,0.0,0.42724609375,-0.48828125,-0.013671875,-1.03125,0.04248046875
736,-0.244140625,0.54931640625,-0.42724609375,-0.013671875,-1.03173828125,0.0478515625
737,-0.42724609375,0.244140625,-0.30517578125,-0.0166015625,-1.03173828125,0.0458984375
738,-0.54931640625,-0.244140625,-0.30517578125,-0.015625,-1.03271484375,0.03857421875
739,-0.54931640625,-0.79345703125,-0.42724609375,-0.0166015625,-1.03173828125,0.03662109375
740,-0.67138671875,-0.79345703125,-0.42724609375,-0.01708984375,-1.03369140625,0.0380859375
741,-0.6103515625,-0.42724609375,-0.42724609375,-0.01513671875,-1.03564453125,0.0380859375
742,-0.48828125,0.0,-0.42724609375,-0.01416015625,-1.0341796875,0.03759765625
743,-0.42724609375,0.244140625,-0.54931640625,-0.01513671875,-1.03173828125,0.03759765625
744,-0.42724609375,0.79345703125,-0.42724609375,-0.015625,-1.0322265625,0.0361328125
745,-0.3662109375,0.8544921875,-0.48828125,-0.0146484375,-1.03125,0.0361328125
746,-0.30517578125,1.28173828125,-0.42724609375,-0.01416015625,-1.0322265625,0.03759765625
747,-0.30517578125,1.40380859375,-0.42724609375,-0.01416015625,-1.0322265625,0.03662109375
748,-0.30517578125,1.3427734375,-0.3662109375,-0.013671875,-1.03125,0.03955078125
749,-0.244140625,1.3427734375,-0.1220703125,-0.01513671875,-1.03076171875,0.03857421875
750,-0.244140625,1.46484375,-0.1220703125,-0.01416015625,-1.03076171875,0.03857421875
751,-0.3662109375,1.40380859375,-0.06103515625,-0.0146484375,-1.03076171875,0.0419921875
752,-0.42724609375,1.15966796875,-0.06103515625,-0.01416015625,-1.03271484375,0.0400390625
753,-0.48828125,1.15966796875,0.06103515625,-0.015625,-1.03515625,0.04345703125
754,-0.6103515625,1.0986328125,0.0,-0.01708984375,-1.03125,0.04150390625
755,-0.67138671875,0.79345703125,0.0,-0.01806640625,-1.03125,0.04052734375
756,-0.79345703125,0.54931640625,0.0,-0.015625,-1.0322265625,0.0361328125
757,-0.6103515625,0.6103515625,0.0,-0.01611328125,-1.03369140625,0.0380859375
758,-0.732421875,0.67138671875,0.0,-0.015625,-1.03271484375,0.03955078125
759,-0.732421875,0.9765625,0.06103515625,-0.013671875,-1.03271484375,0.0390625
760,-0.54931640625,1.3427734375,0.18310546875,-0.015625,-1.03125,0.03759765625
761,-0.3662109375,1.52587890625,0.30517578125,-0.015625,-1.03125,0.03662109375
762,-0.30517578125,1.3427734375,0.3662109375,-0.013671875,-1.0322265625,0.0341796875
763,-0.06103515625,1.15966796875,0.48828125,-0.01611328125,-1.03173828125,0.0322265625
764,0.1220703125,0.8544921875,0.48828125,-0.015625,-1.03125,0.0322265625
765,0.18310546875,0.79345703125,0.48828125,-0.01416015625,-1.03125,0.033203125
766,0.42724609375,0.8544921875,0.67138671875,-0.0166015625,-1.0322265625,0.0400390625
767,0.48828125,0.42724609375,0.6103515625,-0.0166015625,-1.0322265625,0.0439453125
768,0.3662109375,-0.06103515625,0.67138671875,-0.01904296875,-1.033203125,0.04052734375
769,0.18310546875,-0.6103515625,0.6103515625,-0.01953125,-1.03271484375,0.03759765625
770,0.06103515625,-1.03759765625,0.54931640625,-0.01806640625,-1.03369140625,0.03759765625
771,0.0,-0.9765625,0.6103515625,-0.01708984375,-1.03369140625,0.037109375
772,-0.1220703125,-1.03759765625,0.6103515625,-0.0166015625,-1.0322265625,0.041015625
773,-0.1220703125,-1.220703125,0.54931640625,-0.01806640625,-1.03173828125,0.03759765625
774,-0.1220703125,-1.28173828125,0.48828125,-0.0185546875,-1.03271484375,0.037109375
775,-0.244140625,-1.46484375,0.48828125,-0.0205078125,-1.0302734375,0.03759765625
776,-0.48828125,-1.708984375,0.30517578125,-0.0224609375,-1.0302734375,0.0380859375
777,-0.54931640625,-1.89208984375,0.18310546875,-0.01806640625,-1.03125,0.0390625
778,-0.67138671875,-2.0751953125,0.0,-0.0185546875,-1.03076171875,0.03955078125
779,-0.79345703125,-2.01416015625,-0.1220703125,-0.02294921875,-1.033203125,0.03955078125
780,-1.15966796875,-2.01416015625,-0.42724609375,-0.02197265625,-1.03125,0.03759765625
781,-1.28173828125,-2.01416015625,-0.6103515625,-0.02294921875,-1.0322265625,0.0400390625
782,-1.64794921875,-2.0751953125,-0.79345703125,-0.02001953125,-1.0322265625,0.0390625
783,-1.8310546875,-2.0751953125,-0.9765625,-0.02099609375,-1.0322265625,0.0380859375
784,-1.89208984375,-1.89208984375,-1.0986328125,-0.01904296875,-1.03271484375,0.0380859375
785,-2.01416015625,-1.64794921875,-1.220703125,-0.0185546875,-1.0341796875,0.03515625
786,-2.01416015625,-1.40380859375,-1.220703125,-0.01904296875,-1.03466796875,0.03369140625
787,-1.89208984375,-1.0986328125,-1.220703125,-0.0205078125,-1.0322265625,0.03076171875
788,-1.5869140625,-0.91552734375,-1.220703125,-0.01904296875,-1.0341796875,0.03125
789,-1.3427734375,-0.8544921875,-1.220703125,-0.0185546875,-1.033203125,0.03369140625
790,-1.220703125,-0.79345703125,-1.15966796875,-0.015625,-1.03173828125,0.03515625
791,-1.0986328125,-0.79345703125,-1.0986328125,-0.017578125,-1.03076171875,0.03564453125
792,-0.91552734375,-0.9765625,-1.03759765625,-0.01513671875,-1.03076171875,0.0322265625
793,-0.79345703125,-0.8544921875,-0.9765625,-0.017578125,-1.03125,0.03369140625
794,-0.67138671875,-0.8544921875,-0.9765625,-0.017578125,-1.03271484375,0.03076171875
795,-0.3662109375,-0.6103515625,-0.8544921875,-0.01611328125,-1.03369140625,0.0302734375
796,-0.18310546875,-0.42724609375,-0.8544921875,-0.01611328125,-1.03369140625,0.03125
797,0.1220703125,-0.06103515625,-0.8544921875,-0.01611328125,-1.03271484375,0.03466796875
798,0.244140625,0.30517578125,-0.67138671875,-0.015625,-1.03369140625,0.03076171875
799,0.42724609375,0.54931640625,-0.6103515625,-0.0146484375,-1.03271484375,0.03466796875
800,0.67138671875,0.79345703125,-0.48828125,-0.01416015625,-1.03076171875,0.03662109375
801,0.6103515625,0.79345703125,-0.42724609375,-0.0166015625,-1.03125,0.03857421875
802,0.67138671875,0.54931640625,-0.244140625,-0.01708984375,-1.03173828125,0.03955078125
803,0.79345703125,0.3662109375,-0.18310546875,-0.01953125,-1.03173828125,0.03564453125
804,0.9765625,0.1220703125,-0.3662109375,-0.01904296875,-1.033203125,0.033203125
805,1.03759765625,0.06103515625,-0.48828125,-0.0185546875,-1.03076171875,0.033203125
806,1.0986328125,0.3662109375,-0.48828125,-0.0166015625,-1.02978515625,0.02978515625
807,1.220703125,0.6103515625,-0.42724609375,-0.015625,-1.03271484375,0.03271484375
808,1.3427734375,0.8544921875,-0.48828125,-0.01708984375,-1.03369140625,0.03466796875
809,1.52587890625,0.8544921875,-0.54931640625,-0.02001953125,-1.03369140625,0.03564453125
810,1.5869140625,0.79345703125,-0.6103515625,-0.017578125,-1.03173828125,0.03857421875
811,1.52587890625,0.8544921875,-0.6103515625,-0.01611328125,-1.03076171875,0.0390625
812,1.46484375,0.732421875,-0.6103515625,-0.01708984375,-1.03271484375,0.0361328125
813,1.52587890625,0.6103515625,-0.6103515625,-0.015625,-1.0322265625,0.03564453125
814,1.64794921875,0.6103515625,-0.48828125,-0.01416015625,-1.0283203125,0.03759765625
815,1.5869140625,0.8544921875,-0.3662109375,-0.01416015625,-1.03076171875,0.041015625
816,1.5869140625,1.03759765625,-0.244140625,-0.01416015625,-1.02978515625,0.04052734375
817,1.5869140625,1.15966796875,-0.06103515625,-0.0126953125,-1.03173828125,0.03955078125
818,1.5869140625,1.15966796875,0.18310546875,-0.015625,-1.03173828125,0.0390625
819,1.708984375,0.9765625,0.244140625,-0.017578125,-1.0302734375,0.03515625
820,1.77001953125,0.67138671875,0.30517578125,-0.0185546875,-1.0302734375,0.0380859375
821,1.64794921875,0.54931640625,0.30517578125,-0.01806640625,-1.029296875,0.04052734375
822,1.40380859375,0.244140625,0.3662109375,-0.015625,-1.0283203125,0.04052734375
823,1.28173828125,0.1220703125,0.54931640625,-0.015625,-1.029296875,0.0439453125
824,0.9765625,0.244140625,0.732421875,-0.0146484375,-1.029296875,0.05078125
825,0.54931640625,0.0,0.9765625,-0.01611328125,-1.03173828125,0.05224609375
826,0.54931640625,-0.732421875,1.0986328125,-0.0185546875,-1.03515625,0.04443359375
827,0.6103515625,-1.15966796875,1.220703125,-0.0205078125,-1.03515625,0.0390625
828,0.732421875,-1.77001953125,1.15966796875,-0.01708984375,-1.03271484375,0.0400390625
829,0.79345703125,-1.77001953125,1.220703125,-0.01708984375,-1.033203125,0.0390625
830,0.9765625,-1.52587890625,1.28173828125,-0.0205078125,-1.0341796875,0.0341796875
831,1.3427734375,-1.52587890625,1.0986328125,-0.01806640625,-1.03369140625,0.0361328125
832,1.5869140625,-0.67138671875,1.15966796875,-0.0205078125,-1.03564453125,0.03662109375
833,1.8310546875,-0.1220703125,1.220703125,-0.01904296875,-1.0341796875,0.037109375
834,2.0751953125,0.3662109375,1.15966796875,-0.01953125,-1.03369140625,0.03662109375
835,2.13623046875,0.67138671875,1.0986328125,-0.02197265625,-1.03466796875,0.0400390625
836,2.0751953125,1.220703125,1.0986328125,-0.02001953125,-1.03271484375,0.0439453125
837,1.953125,1.52587890625,0.9765625,-0.02099609375,-1.03369140625,0.046875
838,1.77001953125,1.64794921875,0.79345703125,-0.0224609375,-1.03369140625,0.046875
839,1.8310546875,1.5869140625,0.79345703125,-0.0234375,-1.033203125,0.04345703125
840,1.64794921875,1.28173828125,0.732421875,-0.025390625,-1.033203125,0.04541015625
841,1.52587890625,1.03759765625,0.6103515625,-0.0234375,-1.03271484375,0.048828125
842,1.3427734375,1.03759765625,0.48828125,-0.02294921875,-1.03369140625,0.04833984375
843,1.28173828125,0.6103515625,0.54931640625,-0.0224609375,-1.0322265625,0.048828125
844,1.15966796875,0.18310546875,0.6103515625,-0.01953125,-1.03125,0.05078125
845,1.0986328125,0.0,0.732421875,-0.02490234375,-1.0341796875,0.04443359375
846,1.03759765625,-0.42724609375,0.6103515625,-0.02099609375,-1.0302734375,0.04541015625
847,0.9765625,-0.244140625,0.6103515625,-0.0244140625,-1.03125,0.04541015625
848,0.91552734375,0.0,0.48828125,-0.02294921875,-1.03125,0.0419921875
849,1.0986328125,0.30517578125,0.3662109375,-0.021484375,-1.03125,0.04443359375
850,1.220703125,1.220703125,0.30517578125,-0.02197265625,-1.03369140625,0.04345703125
851,1.28173828125,1.64794921875,0.244140625,-0.02685546875,-1.0341796875,0.044921875
852,1.3427734375,1.89208984375,0.0,-0.0244140625,-1.033203125,0.04248046875
853,1.28173828125,2.01416015625,-0.06103515625,-0.0263671875,-1.03466796875,0.04736328125
854,1.15966796875,2.0751953125,-0.18310546875,-0.0283203125,-1.033203125,0.046875
855,1.52587890625,1.220703125,-0.3662109375,-0.025390625,-1.03271484375,0.0478515625
856,1.46484375,0.6103515625,-0.42724609375,-0.02392578125,-1.03271484375,0.052734375
857,1.28173828125,0.3662109375,-0.3662109375,-0.02001953125,-1.03271484375,0.05029296875
858,0.8544921875,0.42724609375,-0.30517578125,-0.02099609375,-1.03125,0.04931640625
859,0.6103515625,0.244140625,-0.18310546875,-0.02392578125,-1.03076171875,0.04931640625
860,0.48828125,0.30517578125,-0.1220703125,-0.02001953125,-1.03173828125,0.05029296875
861,0.18310546875,0.9765625,0.0,-0.0224609375,-1.03271484375,0.04931640625
862,0.18310546875,1.220703125,-0.06103515625,-0.02685546875,-1.03466796875,0.044921875
863,0.3662109375,1.03759765625,-0.1220703125,-0.0234375,-1.03125,0.04541015625
864,0.42724609375,1.40380859375,-0.1220703125,-0.0224609375,-1.03076171875,0.0458984375
865,0.42724609375,1.77001953125,-0.1220703125,-0.02587890625,-1.033203125,0.04541015625
866,0.42724609375,1.953125,-0.30517578125,-0.02490234375,-1.03173828125,0.0439453125
867,0.6103515625,2.01416015625,-0.3662109375,-0.0234375,-1.03076171875,0.0458984375
868,0.48828125,1.953125,-0.3662109375,-0.02392578125,-1.0302734375,0.05126953125
869,0.30517578125,1.77001953125,-0.3662109375,-0.02392578125,-1.03369140625,0.05078125
870,0.54931640625,0.6103515625,-0.48828125,-0.02099609375,-1.0361328125,0.05029296875
871,0.3662109375,0.79345703125,-0.3662109375,-0.021484375,-1.03125,0.05029296875
872,0.1220703125,1.220703125,-0.30517578125,-0.0234375,-1.03076171875,0.0498046875
873,0.1220703125,1.0986328125,-0.30517578125,-0.0234375,-1.0302734375,0.048828125
874,0.30517578125,1.15966796875,-0.3662109375,-0.02294921875,-1.03076171875,0.0458984375
875,0.1220703125,0.8544921875,-0.30517578125,-0.0244140625,-1.03271484375,0.04931640625
876,0.0,0.732421875,-0.42724609375,-0.025390625,-1.03076171875,0.04833984375
877,0.06103515625,0.54931640625,-0.48828125,-0.0244140625,-1.03271484375,0.04833984375
878,0.06103515625,0.54931640625,-0.42724609375,-0.02001953125,-1.03369140625,0.04833984375
879,0.06103515625,0.79345703125,-0.30517578125,-0.0224609375,-1.03076171875,0.04931640625
880,0.0,0.6103515625,-0.30517578125,-0.02392578125,-1.02880859375,0.05322265625
881,0.0,0.6103515625,-0.244140625,-0.0244140625,-1.0302734375,0.04931640625
882,0.06103515625,0.8544921875,-0.244140625,-0.02294921875,-1.03173828125,0.0498046875
883,0.06103515625,0.91552734375,-0.1220703125,-0.02197265625,-1.03076171875,0.0537109375
884,-0.244140625,1.15966796875,-0.18310546875,-0.02392578125,-1.0322265625,0.05029296875
885,-0.1220703125,0.9765625,-0.06103515625,-0.02294921875,-1.0322265625,0.04736328125
886,-0.1220703125,0.8544921875,0.0,-0.0244140625,-1.03125,0.04736328125
887,-0.18310546875,0.67138671875,-0.06103515625,-0.0263671875,-1.03369140625,0.04833984375
888,-0.18310546875,0.48828125,-0.1220703125,-0.02392578125,-1.03173828125,0.0478515625
889,-0.18310546875,0.54931640625,-0.1220703125,-0.0234375,-1.0322265625,0.048828125
890,-0.18310546875,0.3662109375,-0.1220703125,-0.0244140625,-1.03173828125,0.04833984375
891,-0.1220703125,0.30517578125,-0.06103515625,-0.0244140625,-1.0322265625,0.0478515625
892,-0.06103515625,0.18310546875,0.0,-0.0244140625,-1.03271484375,0.05029296875
893,-0.1220703125,0.3662109375,-0.06103515625,-0.02490234375,-1.03076171875,0.04541015625
894,-0.1220703125,0.244140625,-0.18310546875,-0.0263671875,-1.033203125,0.0478515625
895,0.0,0.0,-0.244140625,-0.0244140625,-1.0361328125,0.04638671875
896,-0.06103515625,0.1220703125,-0.244140625,-0.0234375,-1.03369140625,0.04638671875
897,0.0,0.244140625,-0.30517578125,-0.02392578125,-1.033203125,0.0498046875
898,0.0,0.30517578125,-0.244140625,-0.025390625,-1.03369140625,0.0498046875
899,0.0,0.0,-0.244140625,-0.0244140625,-1.033203125,0.04833984375
900,0.06103515625,-0.06103515625,-0.244140625,-0.025390625,-1.033203125,0.04931640625
901,0.06103515625,-0.18310546875,-0.18310546875,-0.02392578125,-1.03076171875,0.04736328125
902,-0.06103515625,-0.18310546875,-0.18310546875,-0.025390625,-1.03173828125,0.04833984375
903,0.0,-0.244140625,-0.1220703125,-0.02392578125,-1.03271484375,0.05029296875
904,0.0,-0.06103515625,-0.1220703125,-0.02587890625,-1.0302734375,0.04931640625
905,-0.06103515625,-0.3662109375,-0.1220703125,-0.02490234375,-1.03076171875,0.04736328125
906,0.0,-0.54931640625,-0.1220703125,-0.0244140625,-1.03173828125,0.0478515625
907,-0.18310546875,-0.42724609375,-0.18310546875,-0.0263671875,-1.0322265625,0.0478515625
908,-0.1220703125,-0.3662109375,-0.18310546875,-0.0234375,-1.03271484375,0.05126953125
909,-0.18310546875,0.0,-0.18310546875,-0.02490234375,-1.0322265625,0.0478515625
910,-0.18310546875,0.06103515625,-0.18310546875,-0.02880859375,-1.03271484375,0.046875
911,-0.18310546875,-0.18310546875,-0.244140625,-0.02685546875,-1.03173828125,0.046875
912,-0.18310546875,-0.18310546875,-0.244140625,-0.0244140625,-1.03076171875,0.04736328125
913,-0.1220703125,0.0,-0.30517578125,-0.025390625,-1.0341796875,0.0478515625
914,0.0,-0.06103515625,-0.42724609375,-0.02734375,-1.0322265625,0.0458984375
915,0.0,-0.18310546875,-0.30517578125,-0.02392578125,-1.0322265625,0.046875
916,0.0,-0.06103515625,-0.42724609375,-0.0244140625,-1.03271484375,0.04638671875
917,-0.1220703125,-0.18310546875,-0.48828125,-0.02197265625,-1.03271484375,0.048828125
918,-0.1220703125,0.0,-0.3662109375,-0.0244140625,-1.03173828125,0.0478515625
919,-0.1220703125,0.0,-0.30517578125,-0.0263671875,-1.0302734375,0.05126953125
920,-0.18310546875,-0.06103515625,-0.30517578125,-0.02587890625,-1.02880859375,0.0498046875
921,-0.06103515625,-0.244140625,-0.244140625,-0.02587890625,-1.029296875,0.05078125
922,-0.18310546875,-0.1220703125,-0.30517578125,-0.0263671875,-1.0322265625,0.046875
923,-0.1220703125,-0.3662109375,-0.30517578125,-0.0234375,-1.03076171875,0.0498046875
924,-0.1220703125,-0.1220703125,-0.244140625,-0.02490234375,-1.03173828125,0.04736328125
925,0.0,-0.06103515625,-0.30517578125,-0.02294921875,-1.03369140625,0.0498046875
926,0.06103515625,0.6103515625,-0.244140625,-0.02294921875,-1.0322265625,0.048828125
927,0.0,1.15966796875,-0.18310546875,-0.0234375,-1.03125,0.048828125
928,0.0,1.3427734375,-0.244140625,-0.025390625,-1.03125,0.048828125
929,-0.06103515625,1.77001953125,-0.3662109375,-0.02294921875,-1.03173828125,0.0498046875
930,-0.1220703125,1.8310546875,-0.30517578125,-0.0244140625,-1.03076171875,0.05224609375
931,-0.06103515625,1.52587890625,-0.244140625,-0.0244140625,-1.03173828125,0.05029296875
932,-0.244140625,1.708984375,-0.18310546875,-0.02490234375,-1.03173828125,0.04931640625
933,-0.244140625,1.46484375,-0.18310546875,-0.0244140625,-1.02978515625,0.0498046875
934,-0.30517578125,1.28173828125,0.0,-0.0263671875,-1.0302734375,0.0517578125
935,-0.42724609375,0.9765625,0.0,-0.0283203125,-1.029296875,0.0478515625
936,-0.3662109375,0.6103515625,-0.1220703125,-0.02685546875,-1.03173828125,0.04638671875
937,-0.30517578125,0.30517578125,-0.06103515625,-0.02685546875,-1.03076171875,0.04736328125
938,-0.3662109375,0.30517578125,-0.06103515625,-0.02734375,-1.0302734375,0.04736328125
939,-0.30517578125,0.3662109375,-0.18310546875,-0.02685546875,-1.0302734375,0.04736328125
940,-0.3662109375,0.54931640625,-0.18310546875,-0.0283203125,-1.03076171875,0.0478515625
941,-0.244140625,0.54931640625,-0.30517578125,-0.02734375,-1.02978515625,0.04931640625
942,-0.244140625,0.732421875,-0.3662109375,-0.02587890625,-1.0322265625,0.04833984375
943,-0.3662109375,0.91552734375,-0.3662109375,-0.02685546875,-1.03125,0.05029296875
944,-0.30517578125,0.8544921875,-0.30517578125,-0.0263671875,-1.03271484375,0.0478515625
945,-0.244140625,0.91552734375,-0.244140625,-0.0263671875,-1.03173828125,0.0478515625
946,-0.30517578125,0.91552734375,-0.244140625,-0.0244140625,-1.02978515625,0.046875
947,-0.30517578125,0.732421875,-0.244140625,-0.02783203125,-1.03125,0.04638671875
948,-0.18310546875,0.48828125,-0.30517578125,-0.025390625,-1.033203125,0.04638671875
949,-0.18310546875,0.48828125,-0.30517578125,-0.02783203125,-1.0341796875,0.0478515625
950,-0.244140625,0.42724609375,-0.30517578125,-0.02685546875,-1.03369140625,0.04736328125
951,-0.244140625,0.30517578125,-0.30517578125,-0.02685546875,-1.03125,0.046875
952,-0.244140625,0.30517578125,-0.3662109375,-0.02783203125,-1.02880859375,0.05029296875
953,-0.30517578125,0.54931640625,-0.3662109375,-0.02587890625,-1.0302734375,0.0517578125
954,-0.3662109375,0.48828125,-0.30517578125,-0.0224609375,-1.0322265625,0.0498046875
955,-0.48828125,0.54931640625,-0.18310546875,-0.02685546875,-1.03076171875,0.04736328125
956,-0.3662109375,0.244140625,-0.3662109375,-0.029296875,-1.0322265625,0.0478515625
957,-0.244140625,0.06103515625,-0.30517578125,-0.0263671875,-1.03271484375,0.046875
958,-0.244140625,0.3662109375,-0.30517578125,-0.02685546875,-1.03125,0.04931640625
959,-0.244140625,0.42724609375,-0.30517578125,-0.02783203125,-1.0322265625,0.046875
960,-0.1220703125,0.48828125,-0.42724609375,-0.02783203125,-1.03271484375,0.04833984375
961,-0.1220703125,0.54931640625,-0.48828125,-0.0283203125,-1.03369140625,0.05078125
962,-0.1220703125,0.48828125,-0.3662109375,-0.02587890625,-1.03076171875,0.04736328125
963,-0.06103515625,0.48828125,-0.42724609375,-0.02587890625,-1.03076171875,0.04833984375
964,-0.1220703125,0.42724609375,-0.42724609375,-0.0283203125,-1.03076171875,0.04736328125
965,-0.244140625,0.3662109375,-0.3662109375,-0.02734375,-1.02880859375,0.048828125
966,-0.3662109375,0.30517578125,-0.3662109375,-0.02734375,-1.03125,0.04931640625
967,-0.3662109375,0.0,-0.42724609375,-0.0263671875,-1.033203125,0.0478515625
968,-0.3662109375,0.0,-0.42724609375,-0.02783203125,-1.0302734375,0.0478515625
969,-0.3662109375,0.18310546875,-0.42724609375,-0.02734375,-1.03125,0.046875
970,-0.42724609375,0.1220703125,-0.3662109375,-0.0263671875,-1.03076171875,0.04541015625
971,-0.30517578125,0.06103515625,-0.3662109375,-0.025390625,-1.0322265625,0.04736328125
972,-0.244140625,0.1220703125,-0.3662109375,-0.02783203125,-1.03125,0.04833984375
973,-0.30517578125,0.06103515625,-0.42724609375,-0.02783203125,-1.03125,0.04833984375
974,-0.18310546875,0.06103515625,-0.42724609375,-0.025390625,-1.03173828125,0.04736328125
975,-0.18310546875,0.30517578125,-0.3662109375,-0.02685546875,-1.0322265625,0.0478515625
976,-0.244140625,0.42724609375,-0.42724609375,-0.029296875,-1.03076171875,0.04931640625
977,-0.18310546875,0.30517578125,-0.3662109375,-0.02490234375,-1.03076171875,0.048828125
978,-0.244140625,0.3662109375,-0.30517578125,-0.025390625,-1.03271484375,0.0498046875
979,-0.244140625,0.30517578125,-0.42724609375,-0.02587890625,-1.03125,0.04931640625
980,-0.42724609375,0.18310546875,-0.42724609375,-0.0263671875,-1.03271484375,0.04931640625
981,-0.3662109375,0.06103515625,-0.30517578125,-0.0263671875,-1.03271484375,0.0478515625
982,-0.3662109375,0.1220703125,-0.3662109375,-0.0263671875,-1.0322265625,0.04833984375
983,-0.3662109375,0.0,-0.42724609375,-0.03076171875,-1.03271484375,0.04638671875
984,-0.18310546875,-0.30517578125,-0.42724609375,-0.0283203125,-1.033203125,0.0439453125
985,-0.244140625,-0.1220703125,-0.42724609375,-0.02685546875,-1.03173828125,0.04541015625
986,-0.18310546875,0.06103515625,-0.48828125,-0.0263671875,-1.03271484375,0.04833984375
987,-0.30517578125,0.06103515625,-0.48828125,-0.02783203125,-1.033203125,0.0478515625
988,-0.18310546875,-0.06103515625,-0.42724609375,-0.02734375,-1.03369140625,0.0458984375
989,-0.18310546875,-0.244140625,-0.3662109375,-0.0283203125,-1.033203125,0.0478515625
990,-0.1220703125,-0.30517578125,-0.48828125,-0.0283203125,-1.03369140625,0.0478515625
991,-0.1220703125,-0.244140625,-0.54931640625,-0.02880859375,-1.0322265625,0.0478515625
992,-0.06103515625,-0.1220703125,-0.6103515625,-0.0263671875,-1.03271484375,0.0439453125
993,0.06103515625,0.1220703125,-0.6103515625,-0.02587890625,-1.03173828125,0.04638671875
994,0.1220703125,0.18310546875,-0.6103515625,-0.02880859375,-1.0302734375,0.04736328125
995,0.18310546875,0.244140625,-0.67138671875,-0.0283203125,-1.033203125,0.04931640625
996,0.1220703125,0.30517578125,-0.54931640625,-0.02734375,-1.03173828125,0.0458984375
997,0.06103515625,0.30517578125,-0.6103515625,-0.0263671875,-1.0302734375,0.0478515625
998,0.1220703125,0.244140625,-0.6103515625,-0.02587890625,-1.03125,0.048828125
999,0.18310546875,0.1220703125,-0.6103515625,-0.0263671875,-1.03466796875,0.0498046875
1000,0.1220703125,0.1220703125,-0.6103515625,-0.0283203125,-1.0302734375,0.0498046875
1001,0.0,0.18310546875,-0.54931640625,-0.02685546875,-1.03076171875,0.048828125
1002,0.1220703125,0.18310546875,-0.54931640625,-0.02734375,-1.0322265625,0.048828125
1003,0.1220703125,0.18310546875,-0.54931640625,-0.02783203125,-1.03369140625,0.04638671875
1004,0.1220703125,0.1220703125,-0.67138671875,-0.02587890625,-1.03466796875,0.04638671875
1005,0.244140625,0.244140625,-0.67138671875,-0.02880859375,-1.033203125,0.0458984375
1006,0.244140625,0.244140625,-0.732421875,-0.03125,-1.03173828125,0.04931640625
1007,0.1220703125,0.30517578125,-0.732421875,-0.02783203125,-1.03125,0.0478515625
1008,0.18310546875,0.6103515625,-0.8544921875,-0.02587890625,-1.0322265625,0.048828125
1009,0.18310546875,0.67138671875,-0.8544921875,-0.02783203125,-1.03173828125,0.048828125
1010,0.1220703125,0.54931640625,-0.8544921875,-0.0244140625,-1.03271484375,0.0478515625
1011,0.1220703125,0.54931640625,-0.79345703125,-0.025390625,-1.0302734375,0.04736328125
1012,0.1220703125,0.54931640625,-0.79345703125,-0.025390625,-1.03076171875,0.04736328125
1013,0.18310546875,0.54931640625,-0.8544921875,-0.0263671875,-1.03173828125,0.044921875
1014,0.1220703125,0.67138671875,-0.79345703125,-0.02783203125,-1.03173828125,0.0478515625
1015,0.06103515625,0.79345703125,-0.8544921875,-0.02734375,-1.0322265625,0.046875
1016,0.1220703125,0.79345703125,-0.8544921875,-0.02734375,-1.03271484375,0.046875
1017,0.30517578125,0.79345703125,-0.79345703125,-0.02734375,-1.03271484375,0.04833984375
1018,0.18310546875,0.732421875,-0.8544921875,-0.02685546875,-1.0341796875,0.0478515625
1019,0.18310546875,0.79345703125,-0.79345703125,-0.0283203125,-1.0322265625,0.04931640625
1020,0.18310546875,0.91552734375,-0.732421875,-0.0244140625,-1.03173828125,0.0498046875
1021,0.18310546875,1.03759765625,-0.732421875,-0.02685546875,-1.03125,0.048828125
1022,0.244140625,0.8544921875,-0.67138671875,-0.02685546875,-1.03173828125,0.0478515625
1023,0.30517578125,0.79345703125,-0.6103515625,-0.0244140625,-1.03125,0.04736328125
1024,0.18310546875,0.732421875,-0.6103515625,-0.02734375,-1.0322265625,0.046875
1025,0.244140625,0.54931640625,-0.6103515625,-0.02734375,-1.03369140625,0.04833984375
1026,0.3662109375,0.54931640625,-0.6103515625,-0.02587890625,-1.0322265625,0.048828125
1027,0.30517578125,0.732421875,-0.6103515625,-0.02880859375,-1.03173828125,0.048828125
1028,0.30517578125,0.732421875,-0.6103515625,-0.02734375,-1.03173828125,0.05078125
1029,0.30517578125,0.732421875,-0.6103515625,-0.0263671875,-1.03076171875,0.046875
1030,0.244140625,0.67138671875,-0.67138671875,-0.025390625,-1.0322265625,0.048828125
1031,0.06103515625,0.732421875,-0.6103515625,-0.025390625,-1.03369140625,0.04931640625
1032,0.1220703125,0.8544921875,-0.6103515625,-0.02392578125,-1.0322265625,0.04931640625
1033,0.1220703125,0.9765625,-0.54931640625,-0.02392578125,-1.03125,0.0478515625
1034,0.0,0.9765625,-0.48828125,-0.02685546875,-1.03173828125,0.044921875
1035,-0.06103515625,0.9765625,-0.67138671875,-0.0244140625,-1.0322265625,0.04833984375
1036,0.1220703125,0.9765625,-0.54931640625,-0.02490234375,-1.0322265625,0.05029296875
1037,0.244140625,1.03759765625,-0.42724609375,-0.02685546875,-1.0322265625,0.05029296875
1038,0.244140625,1.0986328125,-0.48828125,-0.0263671875,-1.03125,0.04931640625
1039,0.244140625,0.91552734375,-0.48828125,-0.025390625,-1.03125,0.04736328125
1040,0.30517578125,0.79345703125,-0.48828125,-0.0244140625,-1.03125,0.048828125
1041,0.244140625,0.79345703125,-0.42724609375,-0.0263671875,-1.03173828125,0.048828125
1042,0.1220703125,0.67138671875,-0.42724609375,-0.02490234375,-1.03125,0.0498046875
1043,0.06103515625,0.54931640625,-0.48828125,-0.02392578125,-1.03271484375,0.0498046875
1044,0.1220703125,0.54931640625,-0.48828125,-0.02587890625,-1.03369140625,0.0498046875
1045,0.1220703125,0.54931640625,-0.48828125,-0.02587890625,-1.03271484375,0.0498046875
1046,0.06103515625,0.54931640625,-0.54931640625,-0.0244140625,-1.03125,0.05029296875
1047,0.18310546875,0.732421875,-0.42724609375,-0.0263671875,-1.03173828125,0.0517578125
1048,0.1220703125,0.67138671875,-0.3662109375,-0.0234375,-1.03173828125,0.0546875
1049,0.06103515625,0.732421875,-0.42724609375,-0.02392578125,-1.03076171875,0.05126953125
1050,0.0,0.79345703125,-0.3662109375,-0.025390625,-1.0322265625,0.04736328125
1051,-0.1220703125,0.79345703125,-0.3662109375,-0.02587890625,-1.03173828125,0.0478515625
1052,0.0,0.79345703125,-0.42724609375,-0.02685546875,-1.0283203125,0.04736328125
1053,0.1220703125,0.8544921875,-0.30517578125,-0.0244140625,-1.02978515625,0.0478515625
1054,0.06103515625,0.732421875,-0.244140625,-0.025390625,-1.0322265625,0.04833984375
1055,0.0,0.54931640625,-0.3662109375,-0.02880859375,-1.03271484375,0.052734375
1056,0.0,0.54931640625,-0.3662109375,-0.02685546875,-1.033203125,0.048828125
1057,0.0,0.42724609375,-0.42724609375,-0.02587890625,-1.033203125,0.04833984375
1058,-0.06103515625,0.3662109375,-0.3662109375,-0.0263671875,-1.03369140625,0.04931640625
1059,0.0,0.3662109375,-0.3662109375,-0.02734375,-1.03076171875,0.0498046875
1060,-0.06103515625,0.244140625,-0.42724609375,-0.02783203125,-1.029296875,0.05029296875
1061,-0.18310546875,0.244140625,-0.48828125,-0.025390625,-1.03125,0.048828125
1062,-0.1220703125,0.244140625,-0.48828125,-0.02587890625,-1.0341796875,0.0498046875
1063,-0.1220703125,0.42724609375,-0.3662109375,-0.025390625,-1.03076171875,0.04833984375
1064,-0.18310546875,0.42724609375,-0.3662109375,-0.02685546875,-1.03125,0.04736328125
1065,-0.18310546875,0.30517578125,-0.3662109375,-0.02685546875,-1.033203125,0.0498046875
1066,-0.1220703125,0.30517578125,-0.30517578125,-0.025390625,-1.03076171875,0.05078125
1067,-0.1220703125,0.18310546875,-0.244140625,-0.02734375,-1.03125,0.05029296875
1068,0.06103515625,0.18310546875,-0.3662109375,-0.025390625,-1.0322265625,0.04931640625
1069,0.0,0.30517578125,-0.30517578125,-0.025390625,-1.03271484375,0.05029296875
1070,0.06103515625,0.54931640625,-0.244140625,-0.02734375,-1.03271484375,0.048828125
1071,-0.1220703125,0.54931640625,-0.30517578125,-0.02685546875,-1.0322265625,0.05029296875
1072,-0.1220703125,0.30517578125,-0.30517578125,-0.0263671875,-1.03076171875,0.0517578125
1073,0.0,0.30517578125,-0.244140625,-0.02685546875,-1.03125,0.0498046875
1074,-0.06103515625,0.244140625,-0.244140625,-0.02783203125,-1.03271484375,0.05029296875
1075,-0.06103515625,0.1220703125,-0.3662109375,-0.0263671875,-1.0322265625,0.04736328125
1076,-0.06103515625,0.3662109375,-0.3662109375,-0.02880859375,-1.033203125,0.04931640625
1077,0.0,0.3662109375,-0.42724609375,-0.02587890625,-1.03173828125,0.0478515625
1078,0.0,0.42724609375,-0.42724609375,-0.02587890625,-1.03125,0.05029296875
1079,0.1220703125,0.3662109375,-0.3662109375,-0.02734375,-1.03173828125,0.05078125
1080,0.06103515625,0.244140625,-0.30517578125,-0.0263671875,-1.029296875,0.05126953125
1081,0.0,0.244140625,-0.42724609375,-0.02734375,-1.02978515625,0.04931640625
1082,-0.06103515625,0.244140625,-0.42724609375,-0.02734375,-1.0322265625,0.04931640625
1083,0.0,0.244140625,-0.3662109375,-0.02734375,-1.03173828125,0.048828125
1084,0.0,0.30517578125,-0.3662109375,-0.0283203125,-1.03125,0.0517578125
1085,0.0,0.3662109375,-0.48828125,-0.02783203125,-1.03076171875,0.04736328125
1086,0.0,0.18310546875,-0.54931640625,-0.025390625,-1.03076171875,0.046875
1087,0.0,0.244140625,-0.54931640625,-0.0283203125,-1.03076171875,0.04833984375
1088,0.0,0.1220703125,-0.54931640625,-0.02783203125,-1.0322265625,0.048828125
1089,0.06103515625,0.18310546875,-0.54931640625,-0.02392578125,-1.03173828125,0.0498046875
1090,-0.06103515625,0.30517578125,-0.54931640625,-0.02783203125,-1.03076171875,0.05029296875
1091,-0.1220703125,0.244140625,-0.54931640625,-0.0263671875,-1.03125,0.04833984375
1092,0.0,0.18310546875,-0.42724609375,-0.02490234375,-1.03076171875,0.046875
1093,0.18310546875,0.30517578125,-0.30517578125,-0.02685546875,-1.03173828125,0.0498046875
1094,0.18310546875,0.18310546875,-0.42724609375,-0.0263671875,-1.03125,0.05126953125
1095,0.06103515625,0.244140625,-0.42724609375,-0.02587890625,-1.03076171875,0.05029296875
1096,0.06103515625,0.244140625,-0.48828125,-0.0283203125,-1.03125,0.05126953125
1097,0.1220703125,0.1220703125,-0.54931640625,-0.0283203125,-1.03466796875,0.04931640625
1098,0.1220703125,0.1220703125,-0.6103515625,-0.02783203125,-1.0341796875,0.05126953125
1099,0.06103515625,0.06103515625,-0.6103515625,-0.02783203125,-1.0322265625,0.05322265625
1100,0.0,-0.06103515625,-0.6103515625,-0.02783203125,-1.02978515625,0.0498046875
1101,-0.06103515625,-0.18310546875,-0.6103515625,-0.02587890625,-1.03173828125,0.04931640625
1102,0.0,-0.06103515625,-0.54931640625,-0.0283203125,-1.03271484375,0.0498046875
1103,0.06103515625,0.0,-0.6103515625,-0.02734375,-1.03076171875,0.048828125
1104,0.06103515625,-0.06103515625,-0.67138671875,-0.02783203125,-1.0302734375,0.05078125
1105,0.0,-0.18310546875,-0.67138671875,-0.0244140625,-1.03125,0.04931640625
1106,0.0,0.1220703125,-0.67138671875,-0.0224609375,-1.0322265625,0.0517578125
1107,0.1220703125,0.18310546875,-0.48828125,-0.02587890625,-1.033203125,0.04931640625
1108,0.18310546875,0.1220703125,-0.48828125,-0.02685546875,-1.02880859375,0.05078125
1109,0.244140625,0.244140625,-0.48828125,-0.02587890625,-1.02978515625,0.05078125
1110,0.18310546875,0.30517578125,-0.48828125,-0.02587890625,-1.03173828125,0.0498046875
1111,0.1220703125,0.3662109375,-0.48828125,-0.0244140625,-1.03173828125,0.05224609375
1112,0.0,0.42724609375,-0.42724609375,-0.025390625,-1.0322265625,0.05029296875
1113,0.1220703125,0.3662109375,-0.42724609375,-0.02783203125,-1.03271484375,0.048828125
1114,0.1220703125,0.18310546875,-0.48828125,-0.02685546875,-1.03173828125,0.05126953125
1115,0.06103515625,0.244140625,-0.42724609375,-0.02734375,-1.03271484375,0.05126953125
1116,0.1220703125,0.3662109375,-0.3662109375,-0.02783203125,-1.03369140625,0.0517578125
1117,0.1220703125,0.3662109375,-0.42724609375,-0.02685546875,-1.03076171875,0.0498046875
1118,0.1220703125,0.42724609375,-0.42724609375,-0.02685546875,-1.03125,0.0498046875
1119,0.1220703125,0.30517578125,-0.3662109375,-0.02490234375,-1.02880859375,0.0498046875
1120,0.18310546875,0.3662109375,-0.42724609375,-0.02685546875,-1.03173828125,0.05126953125
1121,0.1220703125,0.42724609375,-0.42724609375,-0.0263671875,-1.03125,0.04931640625
1122,0.06103515625,0.42724609375,-0.42724609375,-0.0263671875,-1.03125,0.05126953125
1123,0.06103515625,0.3662109375,-0.48828125,-0.0302734375,-1.03271484375,0.05078125
1124,0.06103515625,0.42724609375,-0.48828125,-0.02685546875,-1.03125,0.0498046875
1125,0.0,0.42724609375,-0.48828125,-0.0263671875,-1.02978515625,0.05224609375
1126,0.0,0.48828125,-0.48828125,-0.02392578125,-1.03173828125,0.052734375
1127,0.06103515625,0.30517578125,-0.48828125,-0.025390625,-1.033203125,0.0546875
1128,0.0,0.244140625,-0.42724609375,-0.025390625,-1.033203125,0.05126953125
1129,0.1220703125,0.18310546875,-0.42724609375,-0.0283203125,-1.0322265625,0.048828125
1130,0.06103515625,0.1220703125,-0.48828125,-0.02783203125,-1.03125,0.048828125
1131,-0.1220703125,0.06103515625,-0.48828125,-0.02685546875,-1.03271484375,0.05078125
1132,0.0,0.30517578125,-0.6103515625,-0.025390625,-1.03515625,0.05029296875
1133,0.244140625,0.6103515625,-0.54931640625,-0.025390625,-1.03369140625,0.05126953125
1134,0.18310546875,0.79345703125,-0.54931640625,-0.0263671875,-1.03271484375,0.04931640625
1135,0.18310546875,0.8544921875,-0.54931640625,-0.02587890625,-1.03076171875,0.04931640625
1136,0.244140625,0.79345703125,-0.6103515625,-0.0263671875,-1.03125,0.05029296875
1137,0.18310546875,0.54931640625,-0.67138671875,-0.02734375,-1.0302734375,0.05078125
1138,0.1220703125,0.42724609375,-0.67138671875,-0.0244140625,-1.03125,0.05126953125
1139,0.18310546875,0.54931640625,-0.6103515625,-0.025390625,-1.03125,0.052734375
1140,0.1220703125,0.6103515625,-0.54931640625,-0.025390625,-1.03076171875,0.05126953125
1141,0.0,0.54931640625,-0.48828125,-0.02587890625,-1.03271484375,0.0498046875
1142,-0.1220703125,0.3662109375,-0.6103515625,-0.029296875,-1.03173828125,0.05322265625
1143,-0.06103515625,0.244140625,-0.6103515625,-0.025390625,-1.03271484375,0.05322265625
1144,-0.06103515625,0.48828125,-0.54931640625,-0.02587890625,-1.03271484375,0.05224609375
1145,-0.06103515625,0.42724609375,-0.54931640625,-0.03125,-1.03173828125,0.0517578125
1146,-0.1220703125,0.244140625,-0.732421875,-0.02880859375,-1.0341796875,0.05224609375
1147,-0.1220703125,0.244140625,-0.732421875,-0.02734375,-1.03466796875,0.052734375
1148,0.06103515625,0.3662109375,-0.6103515625,-0.02734375,-1.03125,0.048828125
1149,0.1220703125,0.244140625,-0.54931640625,-0.02490234375,-1.029296875,0.05078125
1150,0.1220703125,0.42724609375,-0.54931640625,-0.02294921875,-1.0302734375,0.0498046875
1151,0.0,0.42724609375,-0.42724609375,-0.0224609375,-1.02978515625,0.05078125
1152,0.18310546875,0.42724609375,-0.3662109375,-0.02587890625,-1.02978515625,0.05419921875
1153,0.18310546875,0.30517578125,-0.244140625,-0.0244140625,-1.0302734375,0.0517578125
1154,0.244140625,0.3662109375,-0.18310546875,-0.02587890625,-1.02978515625,0.0517578125
1155,0.244140625,0.244140625,-0.244140625,-0.02734375,-1.03173828125,0.0537109375
1156,0.244140625,0.18310546875,-0.244140625,-0.02880859375,-1.03369140625,0.05224609375
1157,0.244140625,0.244140625,-0.244140625,-0.02783203125,-1.03369140625,0.05078125
1158,0.18310546875,0.3662109375,-0.30517578125,-0.02587890625,-1.02880859375,0.05126953125
1159,0.1220703125,0.42724609375,-0.42724609375,-0.0302734375,-1.02978515625,0.0517578125
1160,0.244140625,0.3662109375,-0.6103515625,-0.0302734375,-1.03076171875,0.0517578125
1161,0.18310546875,0.3662109375,-0.67138671875,-0.0283203125,-1.0302734375,0.05029296875
1162,0.0,0.30517578125,-0.732421875,-0.029296875,-1.03076171875,0.0546875
1163,-0.06103515625,0.244140625,-0.8544921875,-0.02685546875,-1.03271484375,0.05517578125
1164,-0.06103515625,0.48828125,-0.8544921875,-0.02587890625,-1.03173828125,0.05322265625
1165,-0.1220703125,0.48828125,-0.79345703125,-0.0263671875,-1.0302734375,0.0546875
1166,-0.06103515625,0.54931640625,-0.8544921875,-0.025390625,-1.03125,0.05322265625
1167,0.0,0.67138671875,-0.8544921875,-0.025390625,-1.0302734375,0.0537109375
1168,-0.06103515625,0.67138671875,-0.8544921875,-0.0283203125,-1.02978515625,0.05224609375
1169,0.0,0.67138671875,-0.91552734375,-0.0283203125,-1.02978515625,0.05078125
1170,-0.244140625,0.42724609375,-0.8544921875,-0.029296875,-1.03271484375,0.052734375
1171,-0.1220703125,0.1220703125,-0.8544921875,-0.02685546875,-1.033203125,0.052734375
1172,-0.1220703125,0.06103515625,-0.79345703125,-0.0283203125,-1.03173828125,0.05126953125
1173,0.0,0.1220703125,-0.67138671875,-0.02490234375,-1.03125,0.05029296875
1174,-0.06103515625,0.18310546875,-0.67138671875,-0.0244140625,-1.03173828125,0.05224609375
1175,0.0,0.30517578125,-0.732421875,-0.02490234375,-1.03125,0.0537109375
1176,0.06103515625,0.48828125,-0.48828125,-0.0263671875,-1.03125,0.0517578125
1177,0.06103515625,0.3662109375,-0.48828125,-0.02392578125,-1.0322265625,0.05224609375
1178,0.0,0.244140625,-0.48828125,-0.0263671875,-1.0322265625,0.0517578125
1179,0.06103515625,0.06103515625,-0.48828125,-0.02587890625,-1.03173828125,0.0517578125
1180,0.06103515625,-0.06103515625,-0.3662109375,-0.0263671875,-1.0302734375,0.05419921875
1181,0.0,0.06103515625,-0.30517578125,-0.02880859375,-1.0322265625,0.05078125
1182,-0.06103515625,0.0,-0.42724609375,-0.02685546875,-1.0322265625,0.05419921875
1183,0.06103515625,0.0,-0.48828125,-0.02490234375,-1.0322265625,0.0517578125
1184,0.244140625,0.244140625,-0.54931640625,-0.0263671875,-1.033203125,0.05078125
1185,0.244140625,0.3662109375,-0.48828125,-0.02734375,-1.03271484375,0.05126953125
1186,0.244140625,0.3662109375,-0.48828125,-0.0263671875,-1.03271484375,0.05078125
1187,0.244140625,0.42724609375,-0.48828125,-0.02978515625,-1.03076171875,0.05078125
1188,0.3662109375,0.48828125,-0.54931640625,-0.02685546875,-1.03173828125,0.052734375
1189,0.3662109375,0.6103515625,-0.6103515625,-0.02734375,-1.0283203125,0.052734375
1190,0.18310546875,0.67138671875,-0.6103515625,-0.0302734375,-1.03173828125,0.052734375
1191,0.18310546875,0.79345703125,-0.732421875,-0.02734375,-1.03271484375,0.05224609375
1192,0.06103515625,0.79345703125,-0.79345703125,-0.02587890625,-1.033203125,0.0556640625
1193,-0.1220703125,0.79345703125,-0.79345703125,-0.02734375,-1.03271484375,0.0537109375
1194,0.0,0.732421875,-0.79345703125,-0.02685546875,-1.0302734375,0.05126953125
1195,-0.06103515625,0.67138671875,-0.8544921875,-0.02685546875,-1.033203125,0.0517578125
1196,-0.18310546875,0.54931640625,-0.8544921875,-0.0244140625,-1.033203125,0.05322265625
1197,-0.18310546875,0.67138671875,-0.8544921875,-0.02294921875,-1.03369140625,0.0537109375
1198,-0.18310546875,0.732421875,-0.8544921875,-0.02783203125,-1.0322265625,0.0517578125
1199,-0.1220703125,0.67138671875,-0.91552734375,-0.02685546875,-1.03076171875,0.0537109375
1200,-0.244140625,0.67138671875,-0.91552734375,-0.02880859375,-1.03125,0.05078125
1201,-0.18310546875,0.67138671875,-0.91552734375,-0.025390625,-1.03076171875,0.05078125
1202,-0.18310546875,0.67138671875,-0.8544921875,-0.02490234375,-1.03173828125,0.05322265625
1203,-0.18310546875,0.67138671875,-0.8544921875,-0.0234375,-1.033203125,0.05322265625
1204,-0.30517578125,0.732421875,-0.8544921875,-0.0244140625,-1.03173828125,0.05126953125
1205,-0.244140625,0.6103515625,-0.79345703125,-0.0263671875,-1.0322265625,0.0498046875
1206,-0.18310546875,0.42724609375,-0.79345703125,-0.02490234375,-1.033203125,0.052734375
1207,-0.1220703125,0.54931640625,-0.8544921875,-0.02490234375,-1.03271484375,0.05224609375
1208,-0.1220703125,0.42724609375,-0.79345703125,-0.02490234375,-1.03173828125,0.05419921875
1209,-0.244140625,0.3662109375,-0.79345703125,-0.0234375,-1.03125,0.0537109375
1210,-0.06103515625,0.54931640625,-0.732421875,-0.025390625,-1.03125,0.05322265625
1211,-0.244140625,0.732421875,-0.732421875,-0.0263671875,-1.03271484375,0.0498046875
1212,-0.18310546875,0.67138671875,-0.732421875,-0.02685546875,-1.033203125,0.05078125
1213,-0.18310546875,0.67138671875,-0.8544921875,-0.02734375,-1.03125,0.0517578125
1214,-0.1220703125,0.732421875,-0.91552734375,-0.02587890625,-1.03173828125,0.05322265625
1215,-0.06103515625,0.79345703125,-0.9765625,-0.025390625,-1.03173828125,0.05224609375
1216,-0.18310546875,0.91552734375,-0.9765625,-0.02685546875,-1.03271484375,0.052734375
1217,-0.244140625,0.8544921875,-0.9765625,-0.02587890625,-1.03173828125,0.052734375
1218,-0.30517578125,0.9765625,-0.9765625,-0.02392578125,-1.0302734375,0.05322265625
1219,-0.18310546875,1.0986328125,-0.91552734375,-0.0234375,-1.0322265625,0.05078125
1220,-0.06103515625,1.15966796875,-0.8544921875,-0.02197265625,-1.03076171875,0.05078125
1221,-0.1220703125,1.220703125,-0.79345703125,-0.0224609375,-1.0302734375,0.05224609375
1222,-0.1220703125,1.220703125,-0.732421875,-0.02392578125,-1.03125,0.0517578125
1223,-0.06103515625,0.9765625,-0.79345703125,-0.0244140625,-1.0322265625,0.0517578125
1224,-0.06103515625,1.03759765625,-0.67138671875,-0.025390625,-1.03125,0.05126953125
1225,-0.1220703125,1.0986328125,-0.79345703125,-0.02734375,-1.03125,0.05224609375
1226,0.0,0.79345703125,-0.8544921875,-0.0244140625,-1.03369140625,0.0517578125
1227,0.0,0.9765625,-0.8544921875,-0.0263671875,-1.03369140625,0.05078125
1228,0.06103515625,0.91552734375,-0.91552734375,-0.02490234375,-1.03271484375,0.0517578125
1229,0.18310546875,0.9765625,-0.8544921875,-0.0234375,-1.03173828125,0.05126953125
1230,0.18310546875,1.03759765625,-0.79345703125,-0.0234375,-1.03173828125,0.05419921875
1231,0.06103515625,0.8544921875,-0.79345703125,-0.02685546875,-1.03125,0.0546875
1232,-0.18310546875,0.54931640625,-0.8544921875,-0.02685546875,-1.03125,0.05419921875
1233,-0.1220703125,0.3662109375,-0.79345703125,-0.02587890625,-1.03125,0.05517578125
1234,-0.06103515625,0.42724609375,-0.732421875,-0.0234375,-1.03369140625,0.05517578125
1235,-0.244140625,0.30517578125,-0.54931640625,-0.02392578125,-1.0322265625,0.05419921875
1236,-0.30517578125,0.30517578125,-0.48828125,-0.02392578125,-1.03125,0.0517578125
1237,-0.06103515625,0.30517578125,-0.48828125,-0.025390625,-1.033203125,0.04931640625
1238,-0.06103515625,0.244140625,-0.48828125,-0.025390625,-1.03125,0.05126953125
1239,-0.1220703125,0.244140625,-0.54931640625,-0.0234375,-1.03369140625,0.05126953125
1240,0.0,0.3662109375,-0.48828125,-0.0244140625,-1.03466796875,0.05078125
1241,0.06103515625,0.54931640625,-0.42724609375,-0.02490234375,-1.033203125,0.05078125
1242,0.06103515625,0.48828125,-0.48828125,-0.02294921875,-1.0341796875,0.05517578125
1243,0.06103515625,0.30517578125,-0.42724609375,-0.02490234375,-1.03076171875,0.0556640625
1244,-0.06103515625,0.1220703125,-0.54931640625,-0.02490234375,-1.03173828125,0.05517578125
1245,-0.18310546875,0.1220703125,-0.48828125,-0.02294921875,-1.03076171875,0.05126953125
1246,-0.1220703125,0.1220703125,-0.42724609375,-0.02294921875,-1.0302734375,0.05029296875
1247,-0.244140625,0.30517578125,-0.48828125,-0.025390625,-1.03173828125,0.04931640625
1248,-0.30517578125,0.42724609375,-0.6103515625,-0.0263671875,-1.03125,0.04931640625
1249,-0.244140625,0.48828125,-0.732421875,-0.02685546875,-1.03271484375,0.05126953125
1250,-0.30517578125,0.54931640625,-0.91552734375,-0.02490234375,-1.033203125,0.0537109375
1251,-0.6103515625,0.6103515625,-1.03759765625,-0.0234375,-1.03125,0.0556640625
1252,-0.79345703125,0.48828125,-1.03759765625,-0.0224609375,-1.03369140625,0.0556640625
1253,-0.91552734375,0.3662109375,-0.9765625,-0.02490234375,-1.03173828125,0.05224609375
1254,-1.0986328125,0.0,-0.91552734375,-0.02294921875,-1.03076171875,0.052734375
1255,-0.9765625,-0.1220703125,-0.91552734375,-0.0224609375,-1.03173828125,0.05224609375
1256,-0.8544921875,-0.06103515625,-0.91552734375,-0.0244140625,-1.0322265625,0.0498046875
1257,-0.732421875,0.06103515625,-0.9765625,-0.02197265625,-1.033203125,0.05078125
1258,-0.6103515625,0.30517578125,-0.91552734375,-0.02099609375,-1.03076171875,0.048828125
1259,-0.48828125,0.6103515625,-0.9765625,-0.0224609375,-1.02978515625,0.04345703125
1260,-0.3662109375,0.79345703125,-1.03759765625,-0.02197265625,-1.02978515625,0.046875
1261,-0.3662109375,0.8544921875,-0.9765625,-0.02392578125,-1.02978515625,0.05126953125
1262,-0.54931640625,0.79345703125,-1.15966796875,-0.025390625,-1.0322265625,0.05322265625
1263,-0.6103515625,0.3662109375,-1.0986328125,-0.021484375,-1.03076171875,0.05615234375
1264,-0.6103515625,0.1220703125,-0.9765625,-0.0205078125,-1.0322265625,0.05419921875
1265,-0.79345703125,-0.244140625,-0.91552734375,-0.0224609375,-1.03173828125,0.0537109375
1266,-0.8544921875,-0.30517578125,-0.8544921875,-0.02197265625,-1.0341796875,0.0478515625
1267,-0.67138671875,-0.18310546875,-0.732421875,-0.02001953125,-1.0341796875,0.04736328125
1268,-0.48828125,0.1220703125,-0.79345703125,-0.02099609375,-1.03173828125,0.048828125
1269,-0.6103515625,0.244140625,-0.732421875,-0.02099609375,-1.033203125,0.0517578125
1270,-0.42724609375,0.244140625,-0.79345703125,-0.0224609375,-1.02978515625,0.05029296875
1271,-0.42724609375,0.30517578125,-0.732421875,-0.0234375,-1.0322265625,0.05126953125
1272,-0.54931640625,0.18310546875,-0.732421875,-0.02197265625,-1.03125,0.0537109375
1273,-0.48828125,0.244140625,-0.732421875,-0.02197265625,-1.0322265625,0.04931640625
1274,-0.3662109375,0.42724609375,-0.732421875,-0.02392578125,-1.03369140625,0.0498046875
1275,-0.3662109375,0.67138671875,-0.67138671875,-0.02392578125,-1.03466796875,0.0478515625
1276,-0.18310546875,0.91552734375,-0.732421875,-0.0234375,-1.03173828125,0.04931640625
1277,-0.30517578125,0.9765625,-0.67138671875,-0.021484375,-1.03125,0.0517578125
1278,-0.30517578125,0.91552734375,-0.6103515625,-0.021484375,-1.029296875,0.05078125
1279,-0.30517578125,0.732421875,-0.67138671875,-0.02294921875,-1.03271484375,0.05419921875
1280,-0.42724609375,0.54931640625,-0.48828125,-0.02197265625,-1.03076171875,0.05419921875
1281,-0.54931640625,0.3662109375,-0.54931640625,-0.02490234375,-1.03369140625,0.05126953125
1282,-0.54931640625,0.1220703125,-0.6103515625,-0.0244140625,-1.03271484375,0.05126953125
1283,-0.6103515625,0.18310546875,-0.6103515625,-0.02490234375,-1.0322265625,0.04931640625
1284,-0.54931640625,0.244140625,-0.732421875,-0.02392578125,-1.033203125,0.048828125
1285,-0.54931640625,0.30517578125,-0.8544921875,-0.02294921875,-1.0322265625,0.05078125
1286,-0.6103515625,0.42724609375,-0.732421875,-0.02392578125,-1.03369140625,0.0498046875
1287,-0.732421875,0.3662109375,-0.732421875,-0.02392578125,-1.03369140625,0.04833984375
1288,-0.8544921875,0.18310546875,-0.8544921875,-0.0224609375,-1.03125,0.0537109375
1289,-0.8544921875,0.1220703125,-0.8544921875,-0.021484375,-1.03173828125,0.05126953125
1290,-0.8544921875,-0.06103515625,-0.8544921875,-0.02197265625,-1.03125,0.05029296875
1291,-0.9765625,-0.244140625,-0.79345703125,-0.02294921875,-1.03173828125,0.0498046875
1292,-0.8544921875,-0.42724609375,-0.67138671875,-0.02392578125,-1.03173828125,0.048828125
1293,-0.8544921875,-0.42724609375,-0.6103515625,-0.0244140625,-1.0322265625,0.04931640625
1294,-0.9765625,-0.30517578125,-0.6103515625,-0.0234375,-1.03271484375,0.0478515625
1295,-0.8544921875,-0.1220703125,-0.67138671875,-0.0224609375,-1.03173828125,0.04638671875
1296,-0.6103515625,0.0,-0.6103515625,-0.021484375,-1.03076171875,0.04736328125
1297,-0.6103515625,0.244140625,-0.6103515625,-0.0224609375,-1.03173828125,0.04638671875
1298,-0.42724609375,0.6103515625,-0.67138671875,-0.02294921875,-1.0302734375,0.044921875
1299,-0.48828125,0.732421875,-0.67138671875,-0.0205078125,-1.03076171875,0.04638671875
1300,-0.48828125,0.732421875,-0.79345703125,-0.02099609375,-1.03271484375,0.046875
1301,-0.42724609375,0.79345703125,-0.79345703125,-0.021484375,-1.0322265625,0.0517578125
1302,-0.48828125,0.54931640625,-0.79345703125,-0.021484375,-1.03076171875,0.05029296875
1303,-0.6103515625,0.18310546875,-0.732421875,-0.0244140625,-1.03564453125,0.04931640625
1304,-0.54931640625,-0.1220703125,-0.732421875,-0.0224609375,-1.03369140625,0.048828125
1305,-0.6103515625,0.06103515625,-0.67138671875,-0.0224609375,-1.03271484375,0.0478515625
1306,-0.48828125,0.06103515625,-0.6103515625,-0.02099609375,-1.0322265625,0.04541015625
1307,-0.48828125,0.06103515625,-0.6103515625,-0.0224609375,-1.03173828125,0.04736328125
1308,-0.48828125,0.06103515625,-0.6103515625,-0.021484375,-1.033203125,0.046875
1309,-0.30517578125,0.06103515625,-0.54931640625,-0.02001953125,-1.03173828125,0.0478515625
1310,-0.244140625,0.30517578125,-0.54931640625,-0.02197265625,-1.03369140625,0.0458984375
1311,-0.244140625,0.244140625,-0.67138671875,-0.02392578125,-1.03271484375,0.04638671875
1312,-0.18310546875,0.1220703125,-0.6103515625,-0.02099609375,-1.0322265625,0.048828125
1313,-0.30517578125,0.06103515625,-0.54931640625,-0.021484375,-1.03076171875,0.0498046875
1314,-0.3662109375,0.1220703125,-0.54931640625,-0.02294921875,-1.033203125,0.04931640625
1315,-0.42724609375,0.244140625,-0.6103515625,-0.02099609375,-1.0322265625,0.04443359375
1316,-0.3662109375,0.18310546875,-0.732421875,-0.01953125,-1.03173828125,0.0478515625
1317,-0.3662109375,0.18310546875,-0.732421875,-0.0224609375,-1.03271484375,0.05126953125
1318,-0.42724609375,0.3662109375,-0.67138671875,-0.02099609375,-1.033203125,0.0458984375
1319,-0.42724609375,0.244140625,-0.732421875,-0.02001953125,-1.03271484375,0.04931640625
1320,-0.48828125,0.18310546875,-0.67138671875,-0.02099609375,-1.02978515625,0.046875
1321,-0.3662109375,0.06103515625,-0.6103515625,-0.021484375,-1.03076171875,0.04638671875
1322,-0.30517578125,0.18310546875,-0.67138671875,-0.0224609375,-1.03466796875,0.046875
1323,-0.42724609375,0.18310546875,-0.6103515625,-0.021484375,-1.03271484375,0.0478515625
1324,-0.30517578125,0.18310546875,-0.54931640625,-0.0205078125,-1.03125,0.04638671875
1325,-0.244140625,0.42724609375,-0.54931640625,-0.02099609375,-1.03271484375,0.0458984375
1326,-0.244140625,0.3662109375,-0.54931640625,-0.02099609375,-1.0322265625,0.046875
1327,-0.244140625,0.42724609375,-0.6103515625,-0.0205078125,-1.03173828125,0.04541015625
1328,-0.244140625,0.244140625,-0.54931640625,-0.02197265625,-1.03271484375,0.0498046875
1329,-0.244140625,0.244140625,-0.54931640625,-0.02197265625,-1.0322265625,0.04736328125
1330,-0.244140625,0.18310546875,-0.54931640625,-0.02197265625,-1.033203125,0.0478515625
1331,-0.18310546875,0.30517578125,-0.6103515625,-0.0224609375,-1.033203125,0.04541015625
1332,-0.18310546875,0.30517578125,-0.54931640625,-0.0224609375,-1.03515625,0.04638671875
1333,-0.1220703125,0.30517578125,-0.42724609375,-0.02197265625,-1.03271484375,0.048828125
1334,-0.06103515625,0.30517578125,-0.42724609375,-0.02197265625,-1.03125,0.04638671875
1335,-0.06103515625,0.3662109375,-0.48828125,-0.0234375,-1.0302734375,0.04833984375
1336,-0.1220703125,0.48828125,-0.48828125,-0.0224609375,-1.03271484375,0.046875
1337,0.0,0.48828125,-0.42724609375,-0.02099609375,-1.0322265625,0.04833984375
1338,0.0,0.42724609375,-0.42724609375,-0.02099609375,-1.0322265625,0.048828125
1339,-0.06103515625,0.3662109375,-0.3662109375,-0.021484375,-1.033203125,0.046875
1340,0.06103515625,0.244140625,-0.3662109375,-0.02099609375,-1.03125,0.0478515625
1341,0.0,0.18310546875,-0.3662109375,-0.02001953125,-1.03173828125,0.04443359375
1342,-0.06103515625,0.18310546875,-0.30517578125,-0.0205078125,-1.0322265625,0.046875
1343,0.0,0.244140625,-0.30517578125,-0.01953125,-1.0322265625,0.0498046875
1344,0.0,0.30517578125,-0.30517578125,-0.0205078125,-1.0322265625,0.048828125
1345,0.1220703125,0.3662109375,-0.30517578125,-0.0205078125,-1.03173828125,0.0458984375
1346,0.18310546875,0.48828125,-0.244140625,-0.0224609375,-1.0302734375,0.04736328125
1347,0.30517578125,0.3662109375,-0.18310546875,-0.021484375,-1.03125,0.04638671875
1348,0.3662109375,0.48828125,-0.244140625,-0.02001953125,-1.03173828125,0.0498046875
1349,0.30517578125,0.54931640625,-0.18310546875,-0.0205078125,-1.03369140625,0.044921875
1350,0.48828125,0.3662109375,-0.18310546875,-0.0234375,-1.0322265625,0.04833984375
1351,0.54931640625,0.42724609375,-0.1220703125,-0.021484375,-1.03271484375,0.04736328125
1352,0.54931640625,0.48828125,-0.1220703125,-0.02197265625,-1.033203125,0.046875
1353,0.42724609375,0.48828125,-0.1220703125,-0.02197265625,-1.03076171875,0.04931640625
1354,0.54931640625,0.48828125,-0.18310546875,-0.0244140625,-1.02978515625,0.04833984375
1355,0.42724609375,0.48828125,-0.244140625,-0.02392578125,-1.033203125,0.04736328125
1356,0.48828125,0.42724609375,-0.3662109375,-0.0224609375,-1.0322265625,0.048828125
1357,0.244140625,0.42724609375,-0.3662109375,-0.0205078125,-1.03369140625,0.048828125
1358,0.3662109375,0.54931640625,-0.42724609375,-0.02197265625,-1.033203125,0.048828125
1359,0.42724609375,0.6103515625,-0.3662109375,-0.02197265625,-1.03271484375,0.0498046875
1360,0.42724609375,0.732421875,-0.30517578125,-0.021484375,-1.0302734375,0.0478515625
1361,0.3662109375,0.8544921875,-0.3662109375,-0.0234375,-1.03173828125,0.04736328125
1362,0.48828125,0.8544921875,-0.42724609375,-0.02294921875,-1.03173828125,0.0478515625
1363,0.48828125,0.732421875,-0.30517578125,-0.0234375,-1.03173828125,0.04833984375
1364,0.48828125,0.79345703125,-0.244140625,-0.0224609375,-1.0302734375,0.0498046875
1365,0.42724609375,0.732421875,-0.18310546875,-0.02587890625,-1.03125,0.0478515625
1366,0.48828125,0.732421875,-0.30517578125,-0.02099609375,-1.03076171875,0.04833984375
1367,0.54931640625,0.79345703125,-0.18310546875,-0.0224609375,-1.03125,0.0498046875
1368,0.48828125,0.8544921875,-0.30517578125,-0.02294921875,-1.0302734375,0.05029296875
1369,0.48828125,0.732421875,-0.244140625,-0.0234375,-1.03125,0.05126953125
1370,0.48828125,0.79345703125,-0.30517578125,-0.0224609375,-1.0322265625,0.05126953125
1371,0.30517578125,0.732421875,-0.244140625,-0.02099609375,-1.033203125,0.05126953125
1372,0.3662109375,0.54931640625,-0.244140625,-0.02001953125,-1.03173828125,0.0517578125
1373,0.48828125,0.54931640625,-0.18310546875,-0.02294921875,-1.03125,0.04931640625
1374,0.48828125,0.54931640625,-0.18310546875,-0.0234375,-1.033203125,0.0498046875
1375,0.54931640625,0.67138671875,-0.18310546875,-0.021484375,-1.0322265625,0.05126953125
1376,0.48828125,0.67138671875,-0.1220703125,-0.021484375,-1.0322265625,0.052734375
1377,0.42724609375,0.67138671875,-0.1220703125,-0.02490234375,-1.03271484375,0.0517578125
1378,0.30517578125,0.67138671875,-0.06103515625,-0.02392578125,-1.03369140625,0.05126953125
1379,0.42724609375,0.48828125,-0.06103515625,-0.0234375,-1.03173828125,0.05029296875
1380,0.48828125,0.48828125,-0.1220703125,-0.0234375,-1.03076171875,0.052734375
1381,0.244140625,0.48828125,-0.18310546875,-0.025390625,-1.03125,0.0498046875
1382,0.06103515625,0.30517578125,-0.244140625,-0.02587890625,-1.03076171875,0.04833984375
1383,0.1220703125,0.3662109375,-0.3662109375,-0.0234375,-1.0322265625,0.04931640625
1384,0.244140625,0.54931640625,-0.42724609375,-0.0234375,-1.0322265625,0.0517578125
1385,0.06103515625,0.42724609375,-0.48828125,-0.025390625,-1.03173828125,0.05029296875
1386,0.1220703125,0.42724609375,-0.42724609375,-0.0224609375,-1.0322265625,0.04931640625
1387,0.06103515625,0.42724609375,-0.3662109375,-0.0234375,-1.03125,0.052734375
1388,0.0,0.42724609375,-0.3662109375,-0.0224609375,-1.03076171875,0.0517578125
1389,-0.06103515625,0.54931640625,-0.3662109375,-0.025390625,-1.03466796875,0.048828125
1390,0.0,0.42724609375,-0.3662109375,-0.02392578125,-1.03173828125,0.05224609375
1391,0.0,0.48828125,-0.3662109375,-0.02392578125,-1.03125,0.0517578125
1392,0.0,0.3662109375,-0.3662109375,-0.0244140625,-1.03271484375,0.05029296875
1393,0.06103515625,0.30517578125,-0.3662109375,-0.02197265625,-1.03271484375,0.05126953125
1394,0.06103515625,0.244140625,-0.3662109375,-0.02392578125,-1.0322265625,0.0498046875
1395,0.18310546875,0.18310546875,-0.42724609375,-0.02197265625,-1.033203125,0.05029296875
1396,0.1220703125,0.3662109375,-0.30517578125,-0.021484375,-1.03173828125,0.05224609375
1397,0.18310546875,0.42724609375,-0.30517578125,-0.02197265625,-1.03125,0.05126953125
1398,0.18310546875,0.54931640625,-0.3662109375,-0.02099609375,-1.03173828125,0.0498046875
1399,0.18310546875,0.67138671875,-0.244140625,-0.021484375,-1.0322265625,0.05078125
1400,0.30517578125,0.79345703125,-0.18310546875,-0.02294921875,-1.03076171875,0.05126953125
1401,0.42724609375,0.9765625,-0.1220703125,-0.02294921875,-1.03125,0.05224609375
1402,0.3662109375,1.0986328125,-0.1220703125,-0.0244140625,-1.03173828125,0.0546875
1403,0.30517578125,1.03759765625,-0.1220703125,-0.02490234375,-1.03369140625,0.05224609375
1404,0.18310546875,0.732421875,-0.18310546875,-0.02490234375,-1.03271484375,0.052734375
1405,0.1220703125,0.6103515625,-0.244140625,-0.0244140625,-1.03125,0.056640625
1406,0.0,0.732421875,-0.18310546875,-0.0234375,-1.03173828125,0.05224609375
1407,0.0,0.6103515625,-0.18310546875,-0.0224609375,-1.03271484375,0.048828125
1408,-0.06103515625,0.6103515625,-0.18310546875,-0.021484375,-1.0302734375,0.0478515625
1409,0.06103515625,0.6103515625,-0.18310546875,-0.02587890625,-1.02880859375,0.05078125
1410,-0.06103515625,0.42724609375,-0.18310546875,-0.0234375,-1.03125,0.05078125
