n_samples,gyr_x,gyr_y,gyr_z,acc_x,acc_y,acc_z
0,-0.48828125,-0.18310546875,-0.3662109375,0.1083984375,-1.02783203125,0.05810546875
1,-0.244140625,-0.30517578125,-0.48828125,0.10693359375,-1.0283203125,0.05615234375
2,-0.42724609375,-0.42724609375,-0.54931640625,0.1044921875,-1.02783203125,0.0576171875
3,-0.30517578125,-0.3662109375,-0.6103515625,0.10693359375,-1.0263671875,0.0576171875
4,0.1220703125,-0.244140625,-0.6103515625,0.10791015625,-1.02392578125,0.056640625
5,-0.06103515625,-0.3662109375,-0.54931640625,0.10791015625,-1.0263671875,0.05615234375
6,-0.18310546875,-0.30517578125,-0.54931640625,0.10693359375,-1.02587890625,0.05322265625
7,-0.30517578125,-0.48828125,-0.54931640625,0.10546875,-1.0283203125,0.05419921875
8,-0.3662109375,-0.79345703125,-0.6103515625,0.10791015625,-1.0234375,0.056640625
9,-0.48828125,-1.0986328125,-0.6103515625,0.10693359375,-1.02099609375,0.05712890625
10,-0.48828125,-1.28173828125,-0.42724609375,0.1083984375,-1.02490234375,0.0556640625
11,-0.42724609375,-1.220703125,-0.30517578125,0.109375,-1.02490234375,0.05419921875
12,-0.48828125,-1.3427734375,-0.48828125,0.10302734375,-1.0283203125,0.0537109375
13,-0.48828125,-1.40380859375,-0.42724609375,0.1064453125,-1.02734375,0.0546875
14,-0.48828125,-1.220703125,-0.48828125,0.10693359375,-1.0244140625,0.056640625
15,-0.67138671875,-1.03759765625,-0.48828125,0.10693359375,-1.02490234375,0.05712890625
16,-0.9765625,-0.9765625,-0.42724609375,0.10888671875,-1.025390625,0.0556640625
17,-1.15966796875,-0.8544921875,-0.3662109375,0.109375,-1.025390625,0.05517578125
18,-1.3427734375,-0.79345703125,-0.42724609375,0.10546875,-1.0234375,0.05712890625
19,-1.28173828125,-0.8544921875,-0.42724609375,0.10546875,-1.02587890625,0.0546875
20,-1.3427734375,-0.91552734375,-0.244140625,0.1044921875,-1.02685546875,0.0546875
21,-1.28173828125,-0.9765625,-0.3662109375,0.107421875,-1.02978515625,0.05322265625
22,-1.03759765625,-0.8544921875,-0.42724609375,0.109375,-1.02685546875,0.05517578125
23,-0.9765625,-0.54931640625,-0.42724609375,0.1083984375,-1.0283203125,0.05419921875
24,-0.91552734375,-0.244140625,-0.42724609375,0.1064453125,-1.0302734375,0.0498046875
25,-0.67138671875,-0.244140625,-0.3662109375,0.1064453125,-1.02587890625,0.05908203125
26,-0.67138671875,-0.3662109375,-0.30517578125,0.10888671875,-1.02099609375,0.06201171875
27,-0.8544921875,-0.42724609375,-0.3662109375,0.10693359375,-1.02490234375,0.052734375
28,-1.03759765625,-0.54931640625,-0.3662109375,0.1064453125,-1.029296875,0.052734375
29,-0.79345703125,-0.42724609375,-0.3662109375,0.10693359375,-1.02685546875,0.0556640625
30,-0.6103515625,-0.42724609375,-0.42724609375,0.109375,-1.02880859375,0.05419921875
31,-0.79345703125,-0.1220703125,-0.48828125,0.10791015625,-1.02880859375,0.0546875
32,-0.9765625,-0.1220703125,-0.54931640625,0.10498046875,-1.02734375,0.0537109375
33,-0.9765625,0.0,-0.54931640625,0.107421875,-1.02587890625,0.0517578125
34,-1.03759765625,0.18310546875,-0.54931640625,0.10693359375,-1.02587890625,0.0537109375
35,-1.0986328125,0.06103515625,-0.6103515625,0.109375,-1.025390625,0.05224609375
36,-1.220703125,0.1220703125,-0.6103515625,0.10986328125,-1.02392578125,0.04833984375
37,-1.220703125,0.18310546875,-0.54931640625,0.10791015625,-1.02490234375,0.0537109375
38,-1.220703125,0.42724609375,-0.6103515625,0.1064453125,-1.02734375,0.05322265625
39,-1.40380859375,0.48828125,-0.67138671875,0.1103515625,-1.02783203125,0.05029296875
40,-1.40380859375,0.79345703125,-0.67138671875,0.10693359375,-1.0283203125,0.05126953125
41,-1.220703125,0.9765625,-0.8544921875,0.1044921875,-1.02734375,0.0498046875
42,-1.28173828125,1.03759765625,-0.9765625,0.10498046875,-1.0244140625,0.05322265625
43,-1.15966796875,0.91552734375,-1.0986328125,0.10546875,-1.02783203125,0.05224609375
44,-1.0986328125,0.732421875,-1.220703125,0.10595703125,-1.02734375,0.05078125
45,-0.9765625,0.54931640625,-1.28173828125,0.109375,-1.0234375,0.0537109375
46,-0.9765625,0.54931640625,-1.220703125,0.1083984375,-1.02490234375,0.0498046875
47,-0.8544921875,0.67138671875,-1.3427734375,0.10791015625,-1.0283203125,0.048828125
48,-0.54931640625,0.8544921875,-1.220703125,0.10791015625,-1.0263671875,0.0478515625
49,-0.30517578125,0.91552734375,-1.15966796875,0.10888671875,-1.02587890625,0.05126953125
50,-0.244140625,0.9765625,-1.0986328125,0.10888671875,-1.02490234375,0.0546875
51,-0.18310546875,0.91552734375,-1.15966796875,0.10791015625,-1.02392578125,0.05126953125
52,-0.244140625,1.0986328125,-1.220703125,0.10888671875,-1.0302734375,0.04833984375
53,-0.18310546875,1.28173828125,-1.40380859375,0.10595703125,-1.03173828125,0.0478515625
54,-0.18310546875,1.40380859375,-1.52587890625,0.1083984375,-1.02685546875,0.0546875
55,-0.48828125,1.220703125,-1.5869140625,0.1083984375,-1.02392578125,0.0556640625
56,-0.54931640625,0.91552734375,-1.5869140625,0.109375,-1.02392578125,0.05078125
57,-0.8544921875,0.8544921875,-1.52587890625,0.107421875,-1.02734375,0.052734375
58,-0.732421875,0.79345703125,-1.52587890625,0.1103515625,-1.0244140625,0.0498046875
59,-0.48828125,0.67138671875,-1.3427734375,0.10888671875,-1.0234375,0.0517578125
60,-0.244140625,0.79345703125,-1.220703125,0.10986328125,-1.0234375,0.04931640625
61,-0.244140625,0.732421875,-1.15966796875,0.109375,-1.02587890625,0.04638671875
62,0.1220703125,0.732421875,-1.15966796875,0.11083984375,-1.0244140625,0.0498046875
63,0.244140625,0.67138671875,-1.03759765625,0.11083984375,-1.0205078125,0.05126953125
64,0.1220703125,0.54931640625,-0.79345703125,0.111328125,-1.02197265625,0.0537109375
65,0.06103515625,0.48828125,-0.79345703125,0.1123046875,-1.021484375,0.05224609375
66,0.0,0.48828125,-0.67138671875,0.11279296875,-1.0224609375,0.05224609375
67,0.0,0.3662109375,-0.54931640625,0.11279296875,-1.02490234375,0.05126953125
68,0.1220703125,0.3662109375,-0.42724609375,0.1103515625,-1.02587890625,0.052734375
69,0.0,0.3662109375,-0.3662109375,0.1064453125,-1.02587890625,0.05224609375
70,0.0,0.244140625,-0.3662109375,0.109375,-1.02490234375,0.05126953125
71,0.0,0.18310546875,-0.3662109375,0.1103515625,-1.02392578125,0.0537109375
72,0.1220703125,0.244140625,-0.30517578125,0.11083984375,-1.02587890625,0.052734375
73,0.06103515625,0.18310546875,-0.244140625,0.10986328125,-1.02587890625,0.0498046875
74,0.0,0.1220703125,-0.30517578125,0.107421875,-1.02685546875,0.05224609375
75,0.18310546875,0.06103515625,-0.30517578125,0.109375,-1.02783203125,0.05126953125
76,0.3662109375,0.06103515625,-0.244140625,0.11083984375,-1.02685546875,0.0517578125
77,0.18310546875,0.06103515625,-0.244140625,0.1083984375,-1.0244140625,0.05126953125
78,0.18310546875,-0.1220703125,-0.18310546875,0.11083984375,-1.02392578125,0.0546875
79,0.244140625,-0.18310546875,-0.1220703125,0.11181640625,-1.02490234375,0.05126953125
80,0.3662109375,-0.244140625,0.0,0.10791015625,-1.02734375,0.05224609375
81,0.48828125,-0.42724609375,0.06103515625,0.10888671875,-1.02685546875,0.05126953125
82,0.48828125,-0.42724609375,0.0,0.1103515625,-1.025390625,0.048828125
83,0.48828125,-0.48828125,-0.1220703125,0.11083984375,-1.0244140625,0.05078125
84,0.6103515625,-0.54931640625,0.0,0.10986328125,-1.0234375,0.05224609375
85,0.6103515625,-0.42724609375,0.1220703125,0.10888671875,-1.0244140625,0.0517578125
86,0.42724609375,-0.48828125,0.06103515625,0.1103515625,-1.02392578125,0.05322265625
87,0.42724609375,-0.54931640625,0.1220703125,0.10986328125,-1.025390625,0.052734375
88,0.3662109375,-0.3662109375,0.1220703125,0.10791015625,-1.02392578125,0.0537109375
89,0.3662109375,-0.3662109375,0.1220703125,0.10888671875,-1.0263671875,0.052734375
90,0.30517578125,-0.30517578125,0.244140625,0.109375,-1.02392578125,0.0537109375
91,0.06103515625,-0.30517578125,0.244140625,0.11083984375,-1.02490234375,0.05517578125
92,0.06103515625,-0.18310546875,0.244140625,0.1064453125,-1.0234375,0.0546875
93,-0.18310546875,-0.06103515625,0.244140625,0.10693359375,-1.0244140625,0.05419921875
94,-0.48828125,-0.1220703125,0.18310546875,0.10888671875,-1.0244140625,0.05322265625
95,-0.6103515625,-0.1220703125,0.244140625,0.10888671875,-1.02392578125,0.0556640625
96,-0.54931640625,-0.06103515625,0.244140625,0.107421875,-1.02294921875,0.05126953125
97,-0.67138671875,-0.1220703125,0.244140625,0.1103515625,-1.0263671875,0.0537109375
98,-0.79345703125,-0.1220703125,0.18310546875,0.109375,-1.025390625,0.0517578125
99,-0.91552734375,0.0,0.244140625,0.10693359375,-1.02734375,0.0517578125
100,-0.79345703125,0.06103515625,0.18310546875,0.10595703125,-1.02783203125,0.04931640625
101,-0.79345703125,0.06103515625,0.06103515625,0.107421875,-1.02880859375,0.05029296875
102,-0.48828125,0.18310546875,0.0,0.10693359375,-1.0263671875,0.0498046875
103,-0.54931640625,0.244140625,-0.06103515625,0.10595703125,-1.02685546875,0.05419921875
104,-0.6103515625,0.18310546875,0.0,0.10693359375,-1.02490234375,0.0517578125
105,-0.54931640625,0.30517578125,-0.06103515625,0.107421875,-1.02734375,0.0498046875
106,-0.6103515625,0.3662109375,-0.18310546875,0.107421875,-1.02587890625,0.0517578125
107,-0.6103515625,0.3662109375,-0.06103515625,0.10693359375,-1.02783203125,0.04931640625
108,-0.67138671875,0.3662109375,-0.18310546875,0.10546875,-1.02734375,0.05078125
109,-0.54931640625,0.3662109375,-0.18310546875,0.10693359375,-1.0263671875,0.05126953125
110,-0.48828125,0.30517578125,-0.1220703125,0.1064453125,-1.02490234375,0.05224609375
111,-0.54931640625,0.244140625,-0.06103515625,0.10498046875,-1.0263671875,0.05322265625
112,-0.732421875,0.244140625,-0.18310546875,0.1064453125,-1.025390625,0.05126953125
113,-0.732421875,0.18310546875,-0.18310546875,0.10595703125,-1.02490234375,0.05029296875
114,-0.79345703125,0.18310546875,-0.244140625,0.10693359375,-1.02587890625,0.05029296875
115,-0.6103515625,0.1220703125,-0.244140625,0.1064453125,-1.0283203125,0.05126953125
116,-0.67138671875,0.244140625,-0.18310546875,0.10791015625,-1.0263671875,0.05224609375
117,-0.67138671875,0.30517578125,-0.18310546875,0.10595703125,-1.0263671875,0.05224609375
118,-0.79345703125,0.18310546875,-0.30517578125,0.10546875,-1.0283203125,0.04931640625
119,-0.79345703125,0.18310546875,-0.3662109375,0.10595703125,-1.02587890625,0.0546875
120,-0.79345703125,0.1220703125,-0.3662109375,0.10546875,-1.0263671875,0.05029296875
121,-0.732421875,0.244140625,-0.30517578125,0.10791015625,-1.02685546875,0.0498046875
122,-0.67138671875,0.30517578125,-0.3662109375,0.107421875,-1.02392578125,0.05126953125
123,-0.6103515625,0.30517578125,-0.3662109375,0.10791015625,-1.02490234375,0.0498046875
124,-0.67138671875,0.244140625,-0.3662109375,0.10791015625,-1.0263671875,0.05029296875
125,-0.6103515625,0.30517578125,-0.42724609375,0.10546875,-1.025390625,0.05126953125
126,-0.42724609375,0.30517578125,-0.48828125,0.10693359375,-1.025390625,0.05029296875
127,-0.42724609375,0.3662109375,-0.3662109375,0.1064453125,-1.02490234375,0.0517578125
128,-0.3662109375,0.3662109375,-0.42724609375,0.10595703125,-1.0244140625,0.05322265625
129,-0.30517578125,0.42724609375,-0.30517578125,0.10791015625,-1.02490234375,0.05078125
130,-0.30517578125,0.42724609375,-0.30517578125,0.10595703125,-1.02685546875,0.0498046875
131,-0.244140625,0.3662109375,-0.42724609375,0.10546875,-1.02490234375,0.05029296875
132,-0.244140625,0.30517578125,-0.48828125,0.103515625,-1.02392578125,0.052734375
133,-0.18310546875,0.30517578125,-0.48828125,0.1064453125,-1.02734375,0.0458984375
134,-0.244140625,0.30517578125,-0.54931640625,0.107421875,-1.0283203125,0.048828125
135,-0.3662109375,0.244140625,-0.67138671875,0.103515625,-1.02880859375,0.04931640625
136,-0.3662109375,0.244140625,-0.67138671875,0.10791015625,-1.025390625,0.05029296875
137,-0.48828125,0.244140625,-0.67138671875,0.10791015625,-1.02392578125,0.05224609375
138,-0.54931640625,0.3662109375,-0.6103515625,0.1064453125,-1.0234375,0.048828125
139,-0.54931640625,0.30517578125,-0.6103515625,0.10595703125,-1.02734375,0.0478515625
140,-0.48828125,0.30517578125,-0.6103515625,0.1044921875,-1.0302734375,0.0478515625
141,-0.42724609375,0.3662109375,-0.6103515625,0.10546875,-1.0234375,0.05078125
142,-0.54931640625,0.3662109375,-0.6103515625,0.10595703125,-1.0244140625,0.05078125
143,-0.48828125,0.42724609375,-0.54931640625,0.1064453125,-1.02685546875,0.04736328125
144,-0.3662109375,0.42724609375,-0.67138671875,0.1064453125,-1.02685546875,0.04833984375
145,-0.30517578125,0.48828125,-0.67138671875,0.10595703125,-1.0244140625,0.048828125
146,-0.30517578125,0.42724609375,-0.732421875,0.103515625,-1.02734375,0.05029296875
147,-0.18310546875,0.42724609375,-0.79345703125,0.1064453125,-1.029296875,0.04931640625
148,-0.18310546875,0.48828125,-0.8544921875,0.1044921875,-1.0283203125,0.04736328125
149,-0.18310546875,0.48828125,-0.9765625,0.10693359375,-1.0283203125,0.04736328125
150,-0.06103515625,0.67138671875,-0.9765625,0.107421875,-1.02734375,0.04638671875
151,0.06103515625,0.8544921875,-0.9765625,0.1064453125,-1.0244140625,0.048828125
152,0.1220703125,1.03759765625,-1.03759765625,0.1044921875,-1.02685546875,0.0478515625
153,0.06103515625,1.03759765625,-1.220703125,0.103515625,-1.02783203125,0.052734375
154,-0.06103515625,0.732421875,-1.220703125,0.10595703125,-1.02685546875,0.05078125
155,0.06103515625,0.42724609375,-1.28173828125,0.107421875,-1.0244140625,0.05029296875
156,0.0,0.3662109375,-1.220703125,0.107421875,-1.02587890625,0.0517578125
157,0.06103515625,0.67138671875,-1.15966796875,0.107421875,-1.0263671875,0.04833984375
158,0.244140625,0.54931640625,-1.0986328125,0.1083984375,-1.02490234375,0.0478515625
159,0.3662109375,0.67138671875,-1.0986328125,0.10791015625,-1.02197265625,0.04931640625
160,0.30517578125,0.79345703125,-1.03759765625,0.1064453125,-1.025390625,0.05029296875
161,0.30517578125,0.732421875,-0.9765625,0.10595703125,-1.02685546875,0.05419921875
162,0.3662109375,0.732421875,-1.03759765625,0.10888671875,-1.0244140625,0.05029296875
163,0.18310546875,0.79345703125,-0.9765625,0.109375,-1.0224609375,0.052734375
164,0.0,0.67138671875,-1.03759765625,0.10888671875,-1.02197265625,0.0498046875
165,-0.18310546875,0.54931640625,-1.03759765625,0.109375,-1.0234375,0.05126953125
166,-0.1220703125,0.54931640625,-0.79345703125,0.10791015625,-1.0234375,0.04931640625
167,-0.18310546875,0.54931640625,-0.79345703125,0.10595703125,-1.0244140625,0.048828125
168,-0.1220703125,0.54931640625,-0.732421875,0.10693359375,-1.02490234375,0.0478515625
169,-0.06103515625,0.732421875,-0.67138671875,0.10888671875,-1.02734375,0.048828125
170,0.1220703125,0.79345703125,-0.6103515625,0.10888671875,-1.0263671875,0.04931640625
171,0.1220703125,0.67138671875,-0.6103515625,0.107421875,-1.025390625,0.0498046875
172,0.18310546875,0.79345703125,-0.6103515625,0.1083984375,-1.02490234375,0.05126953125
173,0.18310546875,0.732421875,-0.732421875,0.10595703125,-1.02587890625,0.05224609375
174,0.18310546875,0.79345703125,-0.67138671875,0.10791015625,-1.02587890625,0.05078125
175,0.1220703125,0.67138671875,-0.54931640625,0.10791015625,-1.025390625,0.0498046875
176,0.18310546875,0.54931640625,-0.67138671875,0.10693359375,-1.02783203125,0.05126953125
177,0.244140625,0.54931640625,-0.732421875,0.11083984375,-1.0244140625,0.048828125
178,0.1220703125,0.48828125,-0.6103515625,0.10791015625,-1.02490234375,0.05078125
179,0.06103515625,0.54931640625,-0.67138671875,0.10888671875,-1.02783203125,0.052734375
180,0.244140625,0.3662109375,-0.6103515625,0.10986328125,-1.02685546875,0.048828125
181,0.3662109375,0.30517578125,-0.48828125,0.10888671875,-1.02392578125,0.052734375
182,0.244140625,0.30517578125,-0.48828125,0.1103515625,-1.0244140625,0.05419921875
183,0.244140625,0.42724609375,-0.54931640625,0.10986328125,-1.0224609375,0.05029296875
184,0.30517578125,0.3662109375,-0.54931640625,0.10986328125,-1.0244140625,0.04736328125
185,0.3662109375,0.3662109375,-0.48828125,0.11083984375,-1.025390625,0.05126953125
186,0.42724609375,0.244140625,-0.3662109375,0.10791015625,-1.0263671875,0.052734375
187,0.48828125,0.18310546875,-0.42724609375,0.10986328125,-1.02734375,0.0498046875
188,0.42724609375,0.18310546875,-0.48828125,0.109375,-1.02490234375,0.0517578125
189,0.42724609375,0.18310546875,-0.48828125,0.107421875,-1.0244140625,0.0517578125
190,0.42724609375,0.18310546875,-0.42724609375,0.10791015625,-1.02490234375,0.048828125
191,0.3662109375,0.244140625,-0.48828125,0.1083984375,-1.0234375,0.05029296875
192,0.30517578125,0.244140625,-0.48828125,0.10791015625,-1.02490234375,0.052734375
193,0.3662109375,0.1220703125,-0.3662109375,0.107421875,-1.02587890625,0.05224609375
194,0.54931640625,0.1220703125,-0.3662109375,0.107421875,-1.025390625,0.05029296875
195,0.48828125,0.0,-0.30517578125,0.10791015625,-1.0244140625,0.05078125
196,0.30517578125,0.06103515625,-0.244140625,0.10888671875,-1.02197265625,0.05517578125
197,0.18310546875,0.0,-0.30517578125,0.107421875,-1.025390625,0.0546875
198,0.18310546875,0.0,-0.3662109375,0.10693359375,-1.0263671875,0.05224609375
199,0.06103515625,0.0,-0.244140625,0.1103515625,-1.02587890625,0.0537109375
200,0.06103515625,0.0,-0.30517578125,0.10693359375,-1.0244140625,0.0517578125
201,0.0,0.1220703125,-0.30517578125,0.107421875,-1.0263671875,0.05322265625
202,0.0,0.06103515625,-0.30517578125,0.1103515625,-1.025390625,0.0517578125
203,0.0,0.0,-0.30517578125,0.1083984375,-1.0244140625,0.05029296875
204,0.0,0.1220703125,-0.244140625,0.107421875,-1.02685546875,0.052734375
205,0.06103515625,0.18310546875,-0.18310546875,0.10791015625,-1.02685546875,0.05126953125
206,0.06103515625,0.244140625,-0.244140625,0.1083984375,-1.025390625,0.05078125
207,-0.1220703125,0.30517578125,-0.18310546875,0.10888671875,-1.0224609375,0.0546875
208,-0.30517578125,0.244140625,-0.18310546875,0.107421875,-1.02294921875,0.0537109375
209,-0.30517578125,0.244140625,-0.1220703125,0.109375,-1.0244140625,0.05029296875
210,-0.42724609375,0.1220703125,-0.18310546875,0.109375,-1.025390625,0.05224609375
211,-0.3662109375,0.1220703125,-0.18310546875,0.10888671875,-1.0263671875,0.05126953125
212,-0.54931640625,0.244140625,-0.244140625,0.10595703125,-1.02685546875,0.04736328125
213,-0.6103515625,0.3662109375,-0.244140625,0.10595703125,-1.0283203125,0.05078125
214,-0.6103515625,0.42724609375,-0.244140625,0.10595703125,-1.02783203125,0.04931640625
215,-0.6103515625,0.3662109375,-0.244140625,0.10693359375,-1.0244140625,0.05078125
216,-0.67138671875,0.3662109375,-0.30517578125,0.1064453125,-1.025390625,0.05419921875
217,-0.732421875,0.42724609375,-0.3662109375,0.10693359375,-1.0263671875,0.0537109375
218,-0.732421875,0.3662109375,-0.42724609375,0.10888671875,-1.0244140625,0.048828125
219,-0.79345703125,0.54931640625,-0.48828125,0.1064453125,-1.025390625,0.0498046875
220,-0.67138671875,0.67138671875,-0.42724609375,0.107421875,-1.025390625,0.048828125
221,-0.6103515625,0.6103515625,-0.42724609375,0.10595703125,-1.0244140625,0.05224609375
222,-0.6103515625,0.48828125,-0.42724609375,0.10888671875,-1.02685546875,0.05029296875
223,-0.48828125,0.54931640625,-0.48828125,0.11083984375,-1.0263671875,0.0498046875
224,-0.42724609375,0.54931640625,-0.54931640625,0.10791015625,-1.02392578125,0.05078125
225,-0.30517578125,0.732421875,-0.48828125,0.10595703125,-1.02734375,0.04638671875
226,-0.30517578125,0.67138671875,-0.42724609375,0.10693359375,-1.02734375,0.0537109375
227,-0.244140625,0.54931640625,-0.54931640625,0.10791015625,-1.02587890625,0.052734375
228,-0.244140625,0.67138671875,-0.54931640625,0.1064453125,-1.02685546875,0.0517578125
229,-0.30517578125,0.6103515625,-0.54931640625,0.10595703125,-1.0263671875,0.0498046875
230,-0.244140625,0.6103515625,-0.67138671875,0.1103515625,-1.0263671875,0.05224609375
231,-0.244140625,0.67138671875,-0.67138671875,0.11083984375,-1.02392578125,0.04931640625
232,-0.244140625,0.6103515625,-0.6103515625,0.107421875,-1.0263671875,0.0478515625
233,-0.18310546875,0.67138671875,-0.6103515625,0.107421875,-1.02587890625,0.04833984375
234,-0.18310546875,0.6103515625,-0.6103515625,0.1083984375,-1.025390625,0.0537109375
235,-0.18310546875,0.67138671875,-0.6103515625,0.10693359375,-1.02685546875,0.05078125
236,-0.244140625,0.67138671875,-0.54931640625,0.10791015625,-1.02587890625,0.04833984375
237,-0.1220703125,0.732421875,-0.6103515625,0.10693359375,-1.02783203125,0.04931640625
238,0.0,0.732421875,-0.6103515625,0.10791015625,-1.02685546875,0.05078125
239,-0.06103515625,0.6103515625,-0.6103515625,0.10693359375,-1.025390625,0.05078125
240,0.06103515625,0.54931640625,-0.67138671875,0.10498046875,-1.02587890625,0.05126953125
241,0.06103515625,0.6103515625,-0.6103515625,0.10546875,-1.0263671875,0.05126953125
242,0.0,0.54931640625,-0.67138671875,0.10888671875,-1.02392578125,0.05126953125
243,-0.1220703125,0.54931640625,-0.732421875,0.10986328125,-1.02392578125,0.05224609375
244,0.0,0.732421875,-0.67138671875,0.10888671875,-1.0244140625,0.04833984375
245,0.0,0.67138671875,-0.6103515625,0.10791015625,-1.02685546875,0.0478515625
246,0.18310546875,0.67138671875,-0.6103515625,0.10888671875,-1.0263671875,0.05126953125
247,0.244140625,0.6103515625,-0.732421875,0.10546875,-1.02490234375,0.05126953125
248,0.1220703125,0.54931640625,-0.6103515625,0.107421875,-1.02490234375,0.052734375
249,0.1220703125,0.54931640625,-0.6103515625,0.10791015625,-1.0263671875,0.05322265625
250,0.0,0.48828125,-0.54931640625,0.10693359375,-1.02734375,0.05224609375
251,-0.18310546875,0.42724609375,-0.6103515625,0.11083984375,-1.02392578125,0.05224609375
252,-0.1220703125,0.42724609375,-0.6103515625,0.10888671875,-1.02490234375,0.05078125
253,-0.18310546875,0.67138671875,-0.67138671875,0.1044921875,-1.02783203125,0.0498046875
254,-0.30517578125,0.732421875,-0.67138671875,0.10595703125,-1.0244140625,0.0537109375
255,-0.54931640625,0.91552734375,-0.54931640625,0.1083984375,-1.02734375,0.05224609375
256,-0.42724609375,0.732421875,-0.67138671875,0.10595703125,-1.0263671875,0.0458984375
257,-0.42724609375,0.67138671875,-0.6103515625,0.11083984375,-1.0224609375,0.052734375
258,-0.244140625,0.732421875,-0.48828125,0.107421875,-1.02587890625,0.048828125
259,-0.244140625,0.54931640625,-0.42724609375,0.1064453125,-1.02490234375,0.0478515625
260,-0.1220703125,0.6103515625,-0.54931640625,0.1064453125,-1.02490234375,0.05029296875
261,-0.1220703125,0.732421875,-0.6103515625,0.10693359375,-1.02587890625,0.05078125
262,-0.06103515625,0.79345703125,-0.48828125,0.10693359375,-1.025390625,0.0498046875
263,-0.06103515625,0.67138671875,-0.54931640625,0.10546875,-1.02490234375,0.0517578125
264,-0.1220703125,0.67138671875,-0.54931640625,0.1064453125,-1.0234375,0.05126953125
265,0.06103515625,0.67138671875,-0.54931640625,0.1083984375,-1.0224609375,0.05126953125
266,0.0,0.6103515625,-0.54931640625,0.107421875,-1.0244140625,0.0498046875
267,-0.06103515625,0.6103515625,-0.54931640625,0.10791015625,-1.02734375,0.04931640625
268,0.18310546875,0.42724609375,-0.48828125,0.1064453125,-1.02783203125,0.0498046875
269,0.244140625,0.54931640625,-0.6103515625,0.10986328125,-1.02685546875,0.05029296875
270,0.1220703125,0.54931640625,-0.48828125,0.10888671875,-1.02587890625,0.052734375
271,0.18310546875,0.48828125,-0.48828125,0.1083984375,-1.02587890625,0.04931640625
272,0.18310546875,0.67138671875,-0.54931640625,0.109375,-1.0263671875,0.05029296875
273,0.1220703125,0.42724609375,-0.54931640625,0.107421875,-1.02490234375,0.05322265625
274,0.1220703125,0.30517578125,-0.48828125,0.107421875,-1.0234375,0.05224609375
275,0.0,0.42724609375,-0.48828125,0.1083984375,-1.02587890625,0.0537109375
276,0.0,0.3662109375,-0.48828125,0.1064453125,-1.025390625,0.052734375
277,-0.1220703125,0.244140625,-0.42724609375,0.10546875,-1.02587890625,0.05029296875
278,-0.06103515625,0.30517578125,-0.48828125,0.10595703125,-1.025390625,0.04931640625
279,0.06103515625,0.30517578125,-0.42724609375,0.107421875,-1.02294921875,0.05126953125
280,-0.06103515625,0.3662109375,-0.30517578125,0.109375,-1.02587890625,0.0517578125
281,0.0,0.3662109375,-0.42724609375,0.11083984375,-1.02587890625,0.0517578125
282,0.06103515625,0.3662109375,-0.30517578125,0.10888671875,-1.0263671875,0.052734375
283,0.1220703125,0.3662109375,-0.3662109375,0.10498046875,-1.025390625,0.05029296875
284,0.06103515625,0.30517578125,-0.42724609375,0.10595703125,-1.02734375,0.0517578125
285,0.1220703125,0.30517578125,-0.48828125,0.1083984375,-1.02490234375,0.052734375
286,0.06103515625,0.3662109375,-0.48828125,0.10791015625,-1.025390625,0.05126953125
287,0.18310546875,0.18310546875,-0.42724609375,0.11083984375,-1.0244140625,0.0498046875
288,0.30517578125,0.244140625,-0.3662109375,0.1083984375,-1.02392578125,0.05078125
289,0.244140625,0.244140625,-0.3662109375,0.10693359375,-1.0234375,0.05029296875
290,0.1220703125,0.18310546875,-0.42724609375,0.107421875,-1.02734375,0.048828125
291,0.244140625,0.18310546875,-0.3662109375,0.109375,-1.025390625,0.0498046875
292,0.3662109375,0.244140625,-0.48828125,0.10546875,-1.0283203125,0.0546875
293,0.244140625,0.06103515625,-0.48828125,0.1083984375,-1.0263671875,0.0537109375
294,0.1220703125,0.06103515625,-0.54931640625,0.107421875,-1.0263671875,0.05126953125
295,0.0,0.0,-0.6103515625,0.10693359375,-1.02685546875,0.05224609375
296,-0.06103515625,0.06103515625,-0.67138671875,0.107421875,-1.0234375,0.05078125
297,-0.18310546875,-0.06103515625,-0.6103515625,0.1083984375,-1.02294921875,0.052734375
298,-0.30517578125,0.06103515625,-0.54931640625,0.1083984375,-1.02197265625,0.0546875
299,-0.54931640625,-0.06103515625,-0.48828125,0.10986328125,-1.0263671875,0.052734375
300,-0.54931640625,0.0,-0.42724609375,0.11083984375,-1.02490234375,0.0537109375
301,-0.54931640625,0.06103515625,-0.42724609375,0.10693359375,-1.02294921875,0.05517578125
302,-0.6103515625,0.06103515625,-0.48828125,0.1083984375,-1.025390625,0.05419921875
303,-0.67138671875,0.30517578125,-0.42724609375,0.1083984375,-1.0234375,0.052734375
304,-0.6103515625,0.244140625,-0.3662109375,0.10791015625,-1.0263671875,0.052734375
305,-0.54931640625,0.244140625,-0.42724609375,0.1083984375,-1.02783203125,0.0478515625
306,-0.67138671875,0.30517578125,-0.42724609375,0.10791015625,-1.02734375,0.0517578125
307,-0.6103515625,0.3662109375,-0.3662109375,0.107421875,-1.02197265625,0.05322265625
308,-0.6103515625,0.30517578125,-0.244140625,0.107421875,-1.02392578125,0.0498046875
309,-0.54931640625,0.30517578125,-0.244140625,0.1083984375,-1.02490234375,0.048828125
310,-0.48828125,0.244140625,-0.30517578125,0.10888671875,-1.02392578125,0.05078125
311,-0.30517578125,0.244140625,-0.244140625,0.1083984375,-1.02490234375,0.052734375
312,-0.244140625,0.244140625,-0.18310546875,0.1083984375,-1.02587890625,0.05078125
313,-0.06103515625,0.30517578125,-0.1220703125,0.10693359375,-1.02783203125,0.048828125
314,0.0,0.3662109375,-0.30517578125,0.1064453125,-1.0283203125,0.048828125
315,-0.1220703125,0.42724609375,-0.42724609375,0.1064453125,-1.02783203125,0.05126953125
316,-0.18310546875,0.30517578125,-0.3662109375,0.10888671875,-1.02587890625,0.052734375
317,-0.30517578125,0.30517578125,-0.42724609375,0.109375,-1.025390625,0.05224609375
318,-0.54931640625,0.18310546875,-0.48828125,0.10546875,-1.02685546875,0.05224609375
319,-0.6103515625,0.30517578125,-0.54931640625,0.107421875,-1.02587890625,0.05029296875
320,-0.6103515625,0.244140625,-0.48828125,0.1083984375,-1.02685546875,0.05126953125
321,-0.54931640625,0.18310546875,-0.3662109375,0.10986328125,-1.025390625,0.0517578125
322,-0.48828125,0.18310546875,-0.42724609375,0.1064453125,-1.025390625,0.05078125
323,-0.30517578125,0.18310546875,-0.3662109375,0.1064453125,-1.0263671875,0.05078125
324,-0.244140625,0.18310546875,-0.30517578125,0.10693359375,-1.025390625,0.04833984375
325,-0.30517578125,0.244140625,-0.3662109375,0.10693359375,-1.02392578125,0.052734375
326,-0.30517578125,0.30517578125,-0.3662109375,0.1064453125,-1.025390625,0.05224609375
327,-0.30517578125,0.18310546875,-0.3662109375,0.1083984375,-1.0263671875,0.04833984375
328,-0.30517578125,0.244140625,-0.42724609375,0.107421875,-1.0263671875,0.05029296875
329,-0.18310546875,0.30517578125,-0.54931640625,0.10546875,-1.02880859375,0.0478515625
330,-0.06103515625,0.244140625,-0.67138671875,0.1044921875,-1.0234375,0.0478515625
331,-0.1220703125,0.1220703125,-0.732421875,0.107421875,-1.02734375,0.0537109375
332,-0.1220703125,0.42724609375,-0.79345703125,0.107421875,-1.02587890625,0.05126953125
333,-0.3662109375,0.732421875,-0.67138671875,0.10791015625,-1.0244140625,0.056640625
334,-0.3662109375,0.91552734375,-0.67138671875,0.1044921875,-1.0234375,0.05078125
335,-0.6103515625,0.8544921875,-0.732421875,0.10546875,-1.025390625,0.04931640625
336,-0.54931640625,0.732421875,-0.8544921875,0.10595703125,-1.02490234375,0.052734375
337,-0.6103515625,0.3662109375,-0.79345703125,0.107421875,-1.02392578125,0.05078125
338,-0.79345703125,0.30517578125,-0.79345703125,0.1083984375,-1.0224609375,0.05126953125
339,-0.79345703125,0.30517578125,-0.732421875,0.107421875,-1.02490234375,0.04833984375
340,-0.732421875,0.30517578125,-0.732421875,0.10693359375,-1.025390625,0.048828125
341,-0.6103515625,0.30517578125,-0.67138671875,0.10693359375,-1.0234375,0.0498046875
342,-0.48828125,0.48828125,-0.732421875,0.10888671875,-1.02490234375,0.04833984375
343,-0.42724609375,0.54931640625,-0.67138671875,0.10791015625,-1.02734375,0.0498046875
344,-0.3662109375,0.6103515625,-0.6103515625,0.10888671875,-1.02587890625,0.05126953125
345,-0.244140625,0.54931640625,-0.6103515625,0.1083984375,-1.02587890625,0.052734375
346,-0.18310546875,0.48828125,-0.6103515625,0.109375,-1.0244140625,0.05029296875
347,-0.30517578125,0.42724609375,-0.67138671875,0.1064453125,-1.02392578125,0.048828125
348,-0.3662109375,0.48828125,-0.732421875,0.10498046875,-1.02734375,0.05126953125
349,-0.3662109375,0.6103515625,-0.79345703125,0.10791015625,-1.02587890625,0.05078125
350,-0.54931640625,0.42724609375,-0.8544921875,0.10791015625,-1.02685546875,0.05224609375
351,-0.6103515625,0.3662109375,-0.91552734375,0.10888671875,-1.02587890625,0.04931640625
352,-0.732421875,0.244140625,-0.8544921875,0.107421875,-1.0283203125,0.0498046875
353,-0.732421875,0.18310546875,-0.91552734375,0.10791015625,-1.02880859375,0.046875
354,-0.48828125,0.244140625,-0.8544921875,0.1083984375,-1.0263671875,0.04833984375
355,-0.42724609375,0.42724609375,-0.732421875,0.1083984375,-1.0263671875,0.04736328125
356,-0.30517578125,0.54931640625,-0.8544921875,0.1123046875,-1.025390625,0.0458984375
357,-0.244140625,0.54931640625,-0.79345703125,0.111328125,-1.02392578125,0.05126953125
358,-0.18310546875,0.48828125,-0.732421875,0.10791015625,-1.02490234375,0.0478515625
359,-0.244140625,0.42724609375,-0.67138671875,0.109375,-1.02685546875,0.046875
360,-0.244140625,0.48828125,-0.67138671875,0.107421875,-1.02734375,0.048828125
361,-0.244140625,0.54931640625,-0.8544921875,0.1064453125,-1.02685546875,0.05029296875
362,-0.42724609375,0.48828125,-0.79345703125,0.109375,-1.0283203125,0.05078125
363,-0.3662109375,0.48828125,-0.79345703125,0.109375,-1.0244140625,0.0498046875
364,-0.48828125,0.48828125,-0.732421875,0.10888671875,-1.02490234375,0.04833984375
365,-0.67138671875,0.3662109375,-0.79345703125,0.109375,-1.0244140625,0.04931640625
366,-0.42724609375,0.42724609375,-0.732421875,0.10791015625,-1.02392578125,0.0498046875
367,-0.48828125,0.42724609375,-0.67138671875,0.10888671875,-1.025390625,0.0498046875
368,-0.244140625,0.3662109375,-0.54931640625,0.109375,-1.0244140625,0.0478515625
369,-0.18310546875,0.3662109375,-0.48828125,0.1103515625,-1.02392578125,0.0458984375
370,-0.1220703125,0.48828125,-0.48828125,0.10595703125,-1.0263671875,0.0498046875
371,0.0,0.42724609375,-0.48828125,0.109375,-1.0263671875,0.04638671875
372,0.06103515625,0.48828125,-0.54931640625,0.11181640625,-1.02587890625,0.04833984375
373,0.1220703125,0.42724609375,-0.54931640625,0.10888671875,-1.0244140625,0.04833984375
374,0.0,0.3662109375,-0.48828125,0.10888671875,-1.02587890625,0.04931640625
375,0.0,0.30517578125,-0.42724609375,0.109375,-1.0244140625,0.05029296875
376,-0.1220703125,0.30517578125,-0.3662109375,0.10986328125,-1.0244140625,0.0478515625
377,-0.06103515625,0.30517578125,-0.42724609375,0.10986328125,-1.02392578125,0.04931640625
378,-0.06103515625,0.30517578125,-0.3662109375,0.111328125,-1.02294921875,0.048828125
379,0.0,0.30517578125,-0.1220703125,0.11181640625,-1.02197265625,0.0478515625
380,-0.06103515625,0.42724609375,-0.1220703125,0.1083984375,-1.02587890625,0.04638671875
381,0.06103515625,0.3662109375,-0.06103515625,0.1064453125,-1.0283203125,0.048828125
382,0.18310546875,0.48828125,-0.06103515625,0.107421875,-1.0263671875,0.0498046875
383,0.1220703125,0.48828125,-0.1220703125,0.1083984375,-1.025390625,0.05078125
384,-0.06103515625,0.42724609375,-0.1220703125,0.1103515625,-1.02783203125,0.0498046875
385,-0.244140625,0.48828125,-0.244140625,0.10693359375,-1.02587890625,0.04931640625
386,-0.244140625,0.6103515625,-0.18310546875,0.1083984375,-1.0244140625,0.04736328125
387,-0.18310546875,0.48828125,-0.18310546875,0.10791015625,-1.02587890625,0.046875
388,-0.06103515625,0.54931640625,-0.18310546875,0.107421875,-1.025390625,0.04638671875
389,0.0,0.54931640625,-0.1220703125,0.1083984375,-1.0263671875,0.048828125
390,0.0,0.67138671875,-0.1220703125,0.107421875,-1.025390625,0.0458984375
391,0.06103515625,0.732421875,-0.1220703125,0.1083984375,-1.02490234375,0.048828125
392,0.1220703125,0.8544921875,-0.1220703125,0.1064453125,-1.02685546875,0.04931640625
393,0.18310546875,0.91552734375,-0.1220703125,0.10791015625,-1.0263671875,0.0498046875
394,0.06103515625,0.67138671875,-0.06103515625,0.107421875,-1.02685546875,0.05078125
395,0.1220703125,0.6103515625,-0.1220703125,0.1083984375,-1.02587890625,0.0478515625
396,0.0,0.8544921875,-0.18310546875,0.107421875,-1.0263671875,0.04833984375
397,0.244140625,0.732421875,-0.18310546875,0.10693359375,-1.02783203125,0.0478515625
398,0.244140625,0.67138671875,-0.18310546875,0.107421875,-1.0283203125,0.04736328125
399,0.244140625,0.67138671875,-0.244140625,0.107421875,-1.02587890625,0.0498046875
400,0.18310546875,0.6103515625,-0.18310546875,0.10546875,-1.0244140625,0.05126953125
401,0.18310546875,0.54931640625,-0.18310546875,0.10693359375,-1.02392578125,0.05078125
402,0.1220703125,0.6103515625,-0.18310546875,0.107421875,-1.02685546875,0.04736328125
403,0.244140625,0.54931640625,-0.1220703125,0.10595703125,-1.02783203125,0.04931640625
404,0.3662109375,0.42724609375,-0.06103515625,0.109375,-1.02197265625,0.05224609375
405,0.30517578125,0.42724609375,-0.1220703125,0.10693359375,-1.0244140625,0.0498046875
406,0.3662109375,0.3662109375,0.0,0.10595703125,-1.02880859375,0.04638671875
407,0.54931640625,0.3662109375,0.0,0.10888671875,-1.02587890625,0.046875
408,0.6103515625,0.48828125,-0.06103515625,0.10791015625,-1.0234375,0.05322265625
409,0.54931640625,0.54931640625,-0.06103515625,0.10986328125,-1.0244140625,0.052734375
410,0.42724609375,0.54931640625,0.06103515625,0.107421875,-1.025390625,0.0498046875
411,0.3662109375,0.54931640625,0.0,0.107421875,-1.02490234375,0.0537109375
412,0.3662109375,0.244140625,0.06103515625,0.10595703125,-1.02685546875,0.0498046875
413,0.244140625,0.1220703125,0.1220703125,0.10693359375,-1.02685546875,0.0498046875
414,0.30517578125,0.30517578125,0.244140625,0.10693359375,-1.02392578125,0.05078125
415,0.244140625,0.30517578125,0.244140625,0.10888671875,-1.0263671875,0.05029296875
416,0.244140625,0.18310546875,0.30517578125,0.10400390625,-1.02490234375,0.0517578125
417,0.3662109375,0.06103515625,0.244140625,0.10498046875,-1.0263671875,0.0498046875
418,0.3662109375,0.0,0.30517578125,0.10595703125,-1.02734375,0.05224609375
419,0.48828125,-0.1220703125,0.244140625,0.10498046875,-1.02685546875,0.0478515625
420,0.48828125,-0.30517578125,0.1220703125,0.10595703125,-1.02734375,0.0517578125
421,0.42724609375,-0.30517578125,0.18310546875,0.10693359375,-1.02783203125,0.0556640625
422,0.3662109375,-0.30517578125,0.1220703125,0.10595703125,-1.029296875,0.04931640625
423,0.3662109375,-0.244140625,0.06103515625,0.10693359375,-1.0263671875,0.05224609375
424,0.3662109375,-0.30517578125,0.06103515625,0.10400390625,-1.0263671875,0.05419921875
425,0.30517578125,-0.42724609375,-0.06103515625,0.10888671875,-1.02685546875,0.0498046875
426,0.244140625,-0.30517578125,0.0,0.10498046875,-1.0263671875,0.05419921875
427,0.244140625,-0.48828125,-0.06103515625,0.10791015625,-1.02392578125,0.05419921875
428,0.18310546875,-0.54931640625,0.0,0.10400390625,-1.02783203125,0.052734375
429,0.1220703125,-0.6103515625,-0.06103515625,0.103515625,-1.02734375,0.05322265625
430,0.1220703125,-0.48828125,-0.18310546875,0.10400390625,-1.02197265625,0.05029296875
431,0.1220703125,-0.42724609375,-0.244140625,0.103515625,-1.0283203125,0.05029296875
432,0.244140625,-0.3662109375,-0.18310546875,0.1025390625,-1.025390625,0.05224609375
433,0.18310546875,-0.48828125,-0.244140625,0.10595703125,-1.025390625,0.0546875
434,0.06103515625,-0.42724609375,-0.30517578125,0.10498046875,-1.0283203125,0.05224609375
435,-0.1220703125,-0.42724609375,-0.30517578125,0.1044921875,-1.02685546875,0.05078125
436,-0.244140625,-0.42724609375,-0.18310546875,0.10498046875,-1.0263671875,0.05224609375
437,-0.06103515625,-0.42724609375,-0.244140625,0.10107421875,-1.02783203125,0.05126953125
438,-0.18310546875,-0.3662109375,-0.244140625,0.10546875,-1.025390625,0.05224609375
439,-0.3662109375,-0.3662109375,-0.244140625,0.10791015625,-1.02197265625,0.0556640625
440,-0.48828125,-0.3662109375,-0.06103515625,0.10595703125,-1.0244140625,0.0517578125
441,-0.54931640625,-0.48828125,0.06103515625,0.10546875,-1.02490234375,0.05078125
442,-0.42724609375,-0.42724609375,0.0,0.10791015625,-1.0234375,0.048828125
443,-0.3662109375,-0.42724609375,0.1220703125,0.10400390625,-1.02490234375,0.048828125
444,-0.1220703125,-0.6103515625,0.1220703125,0.103515625,-1.02978515625,0.04833984375
445,0.18310546875,-0.732421875,0.06103515625,0.1044921875,-1.0283203125,0.048828125
446,0.244140625,-0.732421875,0.0,0.10205078125,-1.02734375,0.05126953125
447,0.1220703125,-0.67138671875,-0.06103515625,0.1025390625,-1.0283203125,0.0517578125
448,0.1220703125,-0.8544921875,-0.1220703125,0.1025390625,-1.02783203125,0.05078125
449,-0.06103515625,-0.79345703125,-0.18310546875,0.1025390625,-1.02685546875,0.0537109375
450,-0.1220703125,-0.6103515625,-0.244140625,0.103515625,-1.029296875,0.0478515625
451,-0.1220703125,-0.67138671875,-0.18310546875,0.10205078125,-1.02587890625,0.0517578125
452,-0.244140625,-0.54931640625,-0.244140625,0.1025390625,-1.02490234375,0.04931640625
453,-0.3662109375,-0.54931640625,-0.30517578125,0.10205078125,-1.02783203125,0.0517578125
454,-0.48828125,-0.42724609375,-0.30517578125,0.10302734375,-1.02880859375,0.05224609375
455,-0.732421875,-0.3662109375,-0.30517578125,0.10595703125,-1.0263671875,0.052734375
456,-0.91552734375,-0.30517578125,-0.30517578125,0.1044921875,-1.0263671875,0.0498046875
457,-1.03759765625,-0.30517578125,-0.3662109375,0.10498046875,-1.0263671875,0.05029296875
458,-1.15966796875,-0.42724609375,-0.18310546875,0.103515625,-1.025390625,0.05078125
459,-1.15966796875,-0.48828125,-0.244140625,0.10400390625,-1.02880859375,0.0517578125
460,-1.28173828125,-0.42724609375,-0.30517578125,0.10400390625,-1.0283203125,0.0498046875
461,-1.3427734375,-0.3662109375,-0.30517578125,0.1044921875,-1.02783203125,0.04931640625
462,-1.40380859375,-0.244140625,-0.3662109375,0.103515625,-1.0283203125,0.05029296875
463,-1.46484375,-0.1220703125,-0.3662109375,0.1025390625,-1.02734375,0.046875
464,-1.3427734375,0.0,-0.3662109375,0.10498046875,-1.029296875,0.04736328125
465,-1.0986328125,0.244140625,-0.30517578125,0.103515625,-1.0263671875,0.046875
466,-1.0986328125,0.1220703125,-0.3662109375,0.10302734375,-1.02734375,0.05029296875
467,-1.03759765625,0.06103515625,-0.3662109375,0.1025390625,-1.02685546875,0.0478515625
468,-1.0986328125,0.06103515625,-0.42724609375,0.1015625,-1.02490234375,0.04931640625
469,-1.0986328125,-0.06103515625,-0.42724609375,0.103515625,-1.025390625,0.052734375
470,-1.28173828125,-0.1220703125,-0.42724609375,0.1025390625,-1.0244140625,0.05126953125
471,-1.52587890625,-0.244140625,-0.42724609375,0.10302734375,-1.02685546875,0.05029296875
472,-1.3427734375,-0.30517578125,-0.42724609375,0.103515625,-1.02685546875,0.046875
473,-1.220703125,-0.18310546875,-0.42724609375,0.10546875,-1.02734375,0.04638671875
474,-1.0986328125,0.06103515625,-0.48828125,0.10205078125,-1.0283203125,0.0458984375
475,-1.220703125,-0.06103515625,-0.54931640625,0.1044921875,-1.02587890625,0.048828125
476,-1.28173828125,0.0,-0.6103515625,0.103515625,-1.0263671875,0.0517578125
477,-1.28173828125,0.1220703125,-0.54931640625,0.1025390625,-1.0263671875,0.046875
478,-1.3427734375,0.0,-0.48828125,0.10302734375,-1.0263671875,0.04638671875
479,-1.28173828125,0.0,-0.48828125,0.1005859375,-1.02587890625,0.05029296875
480,-1.15966796875,0.1220703125,-0.48828125,0.1015625,-1.02587890625,0.04638671875
481,-1.15966796875,0.1220703125,-0.54931640625,0.10302734375,-1.02685546875,0.04541015625
482,-1.28173828125,0.06103515625,-0.6103515625,0.10205078125,-1.0263671875,0.04638671875
483,-1.03759765625,0.1220703125,-0.54931640625,0.103515625,-1.0263671875,0.04150390625
484,-0.9765625,0.1220703125,-0.48828125,0.10302734375,-1.02734375,0.0458984375
485,-0.79345703125,0.18310546875,-0.48828125,0.1015625,-1.02490234375,0.0478515625
486,-0.67138671875,0.18310546875,-0.67138671875,0.10302734375,-1.0263671875,0.0419921875
487,-0.54931640625,0.18310546875,-0.54931640625,0.10595703125,-1.02587890625,0.0439453125
488,-0.48828125,0.18310546875,-0.48828125,0.103515625,-1.025390625,0.04150390625
489,-0.30517578125,0.244140625,-0.6103515625,0.1025390625,-1.02783203125,0.04443359375
490,-0.1220703125,0.244140625,-0.48828125,0.10546875,-1.02587890625,0.0439453125
491,0.0,0.18310546875,-0.54931640625,0.10205078125,-1.02587890625,0.04541015625
492,0.244140625,0.244140625,-0.6103515625,0.10302734375,-1.02685546875,0.0419921875
493,0.30517578125,0.1220703125,-0.67138671875,0.10546875,-1.02685546875,0.0439453125
494,0.42724609375,0.1220703125,-0.67138671875,0.10595703125,-1.029296875,0.04638671875
495,0.48828125,0.18310546875,-0.67138671875,0.103515625,-1.02734375,0.04541015625
496,0.42724609375,0.18310546875,-0.6103515625,0.10400390625,-1.02490234375,0.0458984375
497,0.3662109375,0.1220703125,-0.67138671875,0.10205078125,-1.0263671875,0.04736328125
498,0.244140625,0.244140625,-0.67138671875,0.1044921875,-1.02685546875,0.046875
499,0.3662109375,0.06103515625,-0.67138671875,0.10693359375,-1.02734375,0.046875
500,0.48828125,0.1220703125,-0.6103515625,0.1025390625,-1.02490234375,0.0478515625
501,0.6103515625,0.18310546875,-0.54931640625,0.103515625,-1.02587890625,0.04443359375
502,0.67138671875,0.244140625,-0.54931640625,0.1044921875,-1.02734375,0.04541015625
503,0.48828125,0.30517578125,-0.6103515625,0.103515625,-1.0283203125,0.04931640625
504,0.6103515625,0.42724609375,-0.67138671875,0.10693359375,-1.02685546875,0.04736328125
505,0.6103515625,0.6103515625,-0.67138671875,0.10498046875,-1.02587890625,0.04296875
506,0.54931640625,0.67138671875,-0.67138671875,0.10302734375,-1.02685546875,0.05078125
507,0.48828125,0.732421875,-0.67138671875,0.10302734375,-1.02783203125,0.05126953125
508,0.6103515625,0.732421875,-0.67138671875,0.10302734375,-1.0263671875,0.046875
509,0.54931640625,0.54931640625,-0.67138671875,0.10400390625,-1.0263671875,0.0478515625
510,0.67138671875,0.54931640625,-0.732421875,0.1025390625,-1.025390625,0.044921875
511,0.67138671875,0.48828125,-0.67138671875,0.1025390625,-1.02685546875,0.04736328125
512,0.67138671875,0.54931640625,-0.6103515625,0.10498046875,-1.02392578125,0.048828125
513,0.79345703125,0.732421875,-0.67138671875,0.10546875,-1.02587890625,0.04345703125
514,0.67138671875,0.67138671875,-0.67138671875,0.10302734375,-1.025390625,0.046875
515,0.732421875,0.54931640625,-0.54931640625,0.10546875,-1.0263671875,0.04931640625
516,0.8544921875,0.67138671875,-0.67138671875,0.1044921875,-1.02587890625,0.0498046875
517,0.8544921875,0.732421875,-0.67138671875,0.1025390625,-1.02685546875,0.04638671875
518,0.8544921875,0.79345703125,-0.6103515625,0.1044921875,-1.0283203125,0.04541015625
519,0.91552734375,0.79345703125,-0.6103515625,0.1025390625,-1.02587890625,0.05126953125
520,0.79345703125,0.8544921875,-0.732421875,0.10205078125,-1.029296875,0.04736328125
521,0.67138671875,0.8544921875,-0.8544921875,0.10498046875,-1.02783203125,0.04931640625
522,0.67138671875,0.91552734375,-0.79345703125,0.10498046875,-1.025390625,0.05078125
523,0.6103515625,1.03759765625,-0.79345703125,0.10498046875,-1.0234375,0.05029296875
524,0.48828125,0.91552734375,-0.67138671875,0.10595703125,-1.02490234375,0.04931640625
525,0.6103515625,0.8544921875,-0.732421875,0.10400390625,-1.02685546875,0.048828125
526,0.6103515625,0.91552734375,-0.67138671875,0.1044921875,-1.025390625,0.0498046875
527,0.67138671875,1.15966796875,-0.6103515625,0.1044921875,-1.02587890625,0.05224609375
528,0.6103515625,0.9765625,-0.6103515625,0.10498046875,-1.02490234375,0.05126953125
529,0.48828125,1.0986328125,-0.6103515625,0.10400390625,-1.02490234375,0.052734375
530,0.30517578125,1.15966796875,-0.6103515625,0.103515625,-1.0263671875,0.05224609375
531,0.244140625,1.0986328125,-0.6103515625,0.10302734375,-1.02880859375,0.05078125
532,0.3662109375,1.03759765625,-0.67138671875,0.10546875,-1.02490234375,0.05126953125
533,0.30517578125,1.0986328125,-0.732421875,0.10400390625,-1.02392578125,0.05029296875
534,0.3662109375,1.15966796875,-0.67138671875,0.10498046875,-1.0283203125,0.04638671875
535,0.54931640625,1.220703125,-0.67138671875,0.1044921875,-1.02783203125,0.04931640625
536,0.732421875,1.40380859375,-0.67138671875,0.10546875,-1.02734375,0.0517578125
537,0.91552734375,1.46484375,-0.67138671875,0.10546875,-1.0244140625,0.05078125
538,0.8544921875,1.46484375,-0.732421875,0.1064453125,-1.0283203125,0.04833984375
539,0.9765625,1.52587890625,-0.732421875,0.103515625,-1.0263671875,0.05078125
540,1.03759765625,1.708984375,-0.91552734375,0.10400390625,-1.02880859375,0.04931640625
541,1.03759765625,1.77001953125,-1.0986328125,0.10546875,-1.02783203125,0.04931640625
542,0.9765625,1.89208984375,-1.15966796875,0.10546875,-1.0263671875,0.0498046875
543,1.03759765625,2.0751953125,-1.0986328125,0.1044921875,-1.0302734375,0.048828125
544,1.15966796875,2.25830078125,-1.28173828125,0.1044921875,-1.029296875,0.0498046875
545,1.0986328125,1.953125,-1.40380859375,0.10498046875,-1.02392578125,0.05712890625
546,1.0986328125,1.5869140625,-1.46484375,0.1044921875,-1.02587890625,0.05126953125
547,1.15966796875,1.52587890625,-1.46484375,0.10498046875,-1.03125,0.0498046875
548,1.28173828125,1.89208984375,-1.5869140625,0.10791015625,-1.02587890625,0.05517578125
549,1.40380859375,2.0751953125,-1.64794921875,0.10498046875,-1.03125,0.04931640625
550,1.64794921875,2.0751953125,-1.8310546875,0.10302734375,-1.03125,0.052734375
551,1.8310546875,1.89208984375,-1.8310546875,0.10595703125,-1.0244140625,0.05859375
552,1.89208984375,1.77001953125,-1.77001953125,0.1064453125,-1.02490234375,0.05322265625
553,1.89208984375,1.8310546875,-1.8310546875,0.10595703125,-1.02783203125,0.05078125
554,2.01416015625,1.8310546875,-1.8310546875,0.10791015625,-1.025390625,0.0517578125
555,2.0751953125,1.708984375,-1.8310546875,0.109375,-1.0224609375,0.0546875
556,2.13623046875,1.5869140625,-1.8310546875,0.10888671875,-1.0244140625,0.05322265625
557,2.13623046875,1.52587890625,-1.77001953125,0.10888671875,-1.02294921875,0.05615234375
558,1.8310546875,1.40380859375,-1.5869140625,0.10888671875,-1.02099609375,0.056640625
559,1.52587890625,1.28173828125,-1.52587890625,0.1083984375,-1.0234375,0.0537109375
560,1.5869140625,1.15966796875,-1.40380859375,0.1103515625,-1.0205078125,0.0576171875
561,1.46484375,1.0986328125,-1.3427734375,0.11083984375,-1.01806640625,0.0576171875
562,1.15966796875,0.9765625,-1.220703125,0.11083984375,-1.0205078125,0.05712890625
563,1.15966796875,0.9765625,-0.9765625,0.11181640625,-1.02294921875,0.05615234375
564,1.15966796875,0.9765625,-0.79345703125,0.10986328125,-1.02294921875,0.05859375
565,1.03759765625,0.79345703125,-0.6103515625,0.111328125,-1.0224609375,0.05810546875
566,0.79345703125,0.54931640625,-0.48828125,0.1083984375,-1.02197265625,0.05810546875
567,0.732421875,0.54931640625,-0.3662109375,0.1083984375,-1.025390625,0.0546875
568,0.732421875,0.67138671875,-0.3662109375,0.10791015625,-1.0263671875,0.0576171875
569,0.732421875,0.54931640625,-0.30517578125,0.1103515625,-1.02392578125,0.06103515625
570,0.48828125,0.48828125,-0.1220703125,0.1083984375,-1.02587890625,0.0595703125
571,0.42724609375,0.42724609375,-0.1220703125,0.10888671875,-1.02294921875,0.05810546875
572,0.244140625,0.42724609375,-0.1220703125,0.10888671875,-1.0244140625,0.06201171875
573,0.1220703125,0.30517578125,-0.1220703125,0.10791015625,-1.0263671875,0.06103515625
574,0.0,0.18310546875,-0.18310546875,0.107421875,-1.0263671875,0.05859375
575,0.0,0.1220703125,-0.30517578125,0.107421875,-1.02490234375,0.060546875
576,-0.1220703125,0.1220703125,-0.42724609375,0.107421875,-1.025390625,0.06005859375
577,-0.18310546875,0.1220703125,-0.30517578125,0.1083984375,-1.0263671875,0.05908203125
578,-0.3662109375,0.18310546875,-0.30517578125,0.1103515625,-1.0263671875,0.05810546875
579,-0.42724609375,0.18310546875,-0.3662109375,0.10888671875,-1.02490234375,0.0576171875
580,-0.48828125,0.1220703125,-0.3662109375,0.10888671875,-1.025390625,0.05712890625
581,-0.54931640625,0.244140625,-0.30517578125,0.10791015625,-1.025390625,0.06103515625
582,-0.6103515625,0.18310546875,-0.30517578125,0.10693359375,-1.02490234375,0.05859375
583,-0.67138671875,0.1220703125,-0.30517578125,0.10888671875,-1.0234375,0.05712890625
584,-0.79345703125,0.06103515625,-0.30517578125,0.1083984375,-1.0234375,0.0556640625
585,-0.8544921875,0.1220703125,-0.18310546875,0.10693359375,-1.02587890625,0.0595703125
586,-0.9765625,0.06103515625,-0.18310546875,0.10791015625,-1.0244140625,0.05859375
587,-1.03759765625,0.06103515625,-0.244140625,0.11083984375,-1.0263671875,0.05859375
588,-1.220703125,0.06103515625,-0.18310546875,0.10888671875,-1.0263671875,0.05859375
589,-1.28173828125,0.1220703125,-0.244140625,0.1064453125,-1.025390625,0.05712890625
590,-1.40380859375,-0.06103515625,-0.30517578125,0.1083984375,-1.02490234375,0.05615234375
591,-1.40380859375,0.0,-0.244140625,0.1083984375,-1.0234375,0.05712890625
592,-1.64794921875,0.1220703125,-0.1220703125,0.10986328125,-1.02294921875,0.0576171875
593,-1.8310546875,0.1220703125,-0.244140625,0.10791015625,-1.029296875,0.05419921875
594,-1.8310546875,0.1220703125,-0.30517578125,0.10546875,-1.029296875,0.05419921875
595,-1.953125,0.30517578125,-0.42724609375,0.10791015625,-1.02685546875,0.0595703125
596,-2.197265625,0.48828125,-0.6103515625,0.10546875,-1.02490234375,0.05712890625
597,-2.3193359375,0.30517578125,-0.67138671875,0.10595703125,-1.02734375,0.05517578125
598,-2.38037109375,0.244140625,-0.79345703125,0.1064453125,-1.03125,0.052734375
599,-2.197265625,0.18310546875,-0.9765625,0.10546875,-1.02783203125,0.052734375
600,-2.0751953125,0.1220703125,-1.03759765625,0.1083984375,-1.03076171875,0.05126953125
601,-1.64794921875,0.30517578125,-1.15966796875,0.107421875,-1.02880859375,0.046875
602,-1.3427734375,0.3662109375,-1.15966796875,0.107421875,-1.02783203125,0.05078125
603,-0.9765625,0.3662109375,-1.220703125,0.10791015625,-1.02734375,0.0498046875
604,-0.79345703125,0.244140625,-1.220703125,0.10791015625,-1.02783203125,0.05029296875
605,-0.6103515625,0.30517578125,-1.15966796875,0.109375,-1.02734375,0.0517578125
606,-0.42724609375,0.3662109375,-1.15966796875,0.11083984375,-1.025390625,0.05029296875
607,0.0,0.42724609375,-1.0986328125,0.1123046875,-1.0234375,0.05322265625
608,0.1220703125,0.6103515625,-0.9765625,0.11083984375,-1.0224609375,0.0517578125
609,0.244140625,0.67138671875,-0.8544921875,0.1083984375,-1.02587890625,0.05078125
610,0.1220703125,0.732421875,-0.79345703125,0.10986328125,-1.02392578125,0.05517578125
611,0.18310546875,0.6103515625,-0.79345703125,0.10986328125,-1.02392578125,0.0517578125
612,0.30517578125,0.6103515625,-0.6103515625,0.10986328125,-1.0263671875,0.05029296875
613,0.42724609375,0.6103515625,-0.54931640625,0.11083984375,-1.02587890625,0.05322265625
614,0.6103515625,0.732421875,-0.54931640625,0.109375,-1.0234375,0.052734375
615,0.732421875,0.8544921875,-0.6103515625,0.1103515625,-1.02734375,0.05322265625
616,0.732421875,0.79345703125,-0.48828125,0.107421875,-1.0263671875,0.0546875
617,0.79345703125,0.732421875,-0.42724609375,0.10791015625,-1.02294921875,0.05712890625
618,0.54931640625,0.8544921875,-0.3662109375,0.107421875,-1.025390625,0.05859375
619,0.3662109375,0.8544921875,-0.42724609375,0.1103515625,-1.02783203125,0.0546875
620,0.244140625,0.8544921875,-0.42724609375,0.107421875,-1.025390625,0.05419921875
621,0.06103515625,0.67138671875,-0.48828125,0.10791015625,-1.02392578125,0.05810546875
622,0.06103515625,0.67138671875,-0.42724609375,0.1064453125,-1.02587890625,0.0546875
623,0.0,0.48828125,-0.42724609375,0.1083984375,-1.02783203125,0.05322265625
624,0.0,0.48828125,-0.42724609375,0.10693359375,-1.02587890625,0.05517578125
625,0.1220703125,0.42724609375,-0.42724609375,0.10888671875,-1.0244140625,0.0546875
626,0.3662109375,0.54931640625,-0.3662109375,0.10888671875,-1.02392578125,0.052734375
627,0.3662109375,0.6103515625,-0.30517578125,0.10888671875,-1.0283203125,0.05419921875
628,0.42724609375,0.6103515625,-0.30517578125,0.107421875,-1.02685546875,0.05224609375
629,0.3662109375,0.67138671875,-0.42724609375,0.1064453125,-1.02490234375,0.0537109375
630,0.42724609375,0.6103515625,-0.42724609375,0.1064453125,-1.02587890625,0.0546875
631,0.42724609375,0.54931640625,-0.42724609375,0.1064453125,-1.0234375,0.05712890625
632,0.30517578125,0.54931640625,-0.48828125,0.10888671875,-1.025390625,0.056640625
633,0.30517578125,0.48828125,-0.48828125,0.10498046875,-1.0263671875,0.05419921875
634,0.3662109375,0.42724609375,-0.54931640625,0.109375,-1.02587890625,0.05419921875
635,0.48828125,0.48828125,-0.54931640625,0.11083984375,-1.025390625,0.0576171875
636,0.48828125,0.6103515625,-0.42724609375,0.10888671875,-1.025390625,0.0556640625
637,0.54931640625,0.67138671875,-0.3662109375,0.1083984375,-1.0244140625,0.05419921875
638,0.42724609375,0.79345703125,-0.30517578125,0.109375,-1.0224609375,0.05810546875
639,0.42724609375,0.67138671875,-0.30517578125,0.11083984375,-1.0234375,0.05712890625
640,0.48828125,0.79345703125,-0.3662109375,0.107421875,-1.02490234375,0.05615234375
641,0.48828125,0.79345703125,-0.30517578125,0.10791015625,-1.02783203125,0.056640625
642,0.3662109375,0.732421875,-0.244140625,0.107421875,-1.02490234375,0.05517578125
643,0.42724609375,0.67138671875,-0.30517578125,0.10400390625,-1.02734375,0.05517578125
644,0.54931640625,0.67138671875,-0.42724609375,0.10791015625,-1.0263671875,0.0576171875
645,0.48828125,0.67138671875,-0.48828125,0.107421875,-1.0263671875,0.056640625
646,0.48828125,0.48828125,-0.42724609375,0.10693359375,-1.02783203125,0.05322265625
647,0.42724609375,0.48828125,-0.54931640625,0.1123046875,-1.0263671875,0.05712890625
648,0.42724609375,0.48828125,-0.48828125,0.11083984375,-1.02197265625,0.05859375
649,0.244140625,0.3662109375,-0.48828125,0.10498046875,-1.0283203125,0.05517578125
650,0.30517578125,0.3662109375,-0.6103515625,0.10693359375,-1.0263671875,0.0546875
651,0.30517578125,0.42724609375,-0.79345703125,0.10986328125,-1.02734375,0.05810546875
652,0.42724609375,0.42724609375,-0.79345703125,0.109375,-1.02587890625,0.05810546875
653,0.244140625,0.48828125,-0.8544921875,0.10791015625,-1.029296875,0.0537109375
654,0.3662109375,0.67138671875,-0.91552734375,0.10595703125,-1.0283203125,0.0546875
655,0.42724609375,0.67138671875,-0.8544921875,0.111328125,-1.025390625,0.05810546875
656,0.30517578125,0.8544921875,-0.8544921875,0.11279296875,-1.017578125,0.0654296875
657,0.1220703125,0.732421875,-0.67138671875,0.10400390625,-1.0302734375,0.0478515625
658,0.30517578125,0.30517578125,-0.79345703125,0.1103515625,-1.0263671875,0.05078125
659,0.6103515625,0.732421875,-0.91552734375,0.1103515625,-1.02490234375,0.05712890625
660,0.79345703125,0.732421875,-0.732421875,0.109375,-1.02294921875,0.05712890625
661,0.79345703125,0.67138671875,-0.6103515625,0.10888671875,-1.025390625,0.05859375
662,0.79345703125,0.8544921875,-0.6103515625,0.10888671875,-1.021484375,0.05615234375
663,0.79345703125,0.8544921875,-0.42724609375,0.109375,-1.0234375,0.0576171875
664,0.9765625,0.8544921875,-0.42724609375,0.10986328125,-1.02734375,0.0537109375
665,1.0986328125,0.9765625,-0.42724609375,0.109375,-1.02734375,0.05712890625
666,1.28173828125,1.220703125,-0.3662109375,0.10986328125,-1.025390625,0.0517578125
667,1.3427734375,1.28173828125,-0.244140625,0.10791015625,-1.02197265625,0.0634765625
668,1.28173828125,1.220703125,-0.30517578125,0.11083984375,-1.02392578125,0.0556640625
669,1.0986328125,1.28173828125,-0.244140625,0.109375,-1.0283203125,0.0576171875
670,1.28173828125,1.5869140625,-0.244140625,0.10888671875,-1.0234375,0.05712890625
671,1.0986328125,1.52587890625,-0.18310546875,0.11083984375,-1.0263671875,0.06005859375
672,1.0986328125,1.46484375,-0.244140625,0.11083984375,-1.02294921875,0.0595703125
673,1.03759765625,1.52587890625,-0.1220703125,0.1103515625,-1.02734375,0.05859375
674,0.9765625,1.46484375,-0.1220703125,0.10791015625,-1.0263671875,0.060546875
675,1.03759765625,1.46484375,-0.18310546875,0.1103515625,-1.0244140625,0.060546875
676,0.91552734375,1.52587890625,-0.18310546875,0.10888671875,-1.025390625,0.0625
677,0.91552734375,1.46484375,-0.18310546875,0.10791015625,-1.025390625,0.05810546875
678,0.67138671875,1.40380859375,-0.18310546875,0.109375,-1.021484375,0.0654296875
679,0.48828125,1.46484375,-0.18310546875,0.1083984375,-1.025390625,0.0615234375
680,0.3662109375,1.3427734375,-0.1220703125,0.10888671875,-1.02685546875,0.05908203125
681,0.3662109375,1.46484375,-0.1220703125,0.107421875,-1.02587890625,0.06298828125
682,0.18310546875,1.15966796875,-0.18310546875,0.107421875,-1.02978515625,0.056640625
683,0.42724609375,1.15966796875,-0.30517578125,0.10888671875,-1.02880859375,0.0615234375
684,0.48828125,1.15966796875,-0.30517578125,0.107421875,-1.02490234375,0.0625
685,0.30517578125,1.220703125,-0.3662109375,0.1083984375,-1.02587890625,0.0615234375
686,0.18310546875,1.03759765625,-0.30517578125,0.1083984375,-1.02490234375,0.06298828125
687,0.06103515625,0.732421875,-0.30517578125,0.109375,-1.025390625,0.0615234375
688,0.30517578125,0.79345703125,-0.3662109375,0.109375,-1.02392578125,0.056640625
689,0.30517578125,0.8544921875,-0.30517578125,0.10986328125,-1.0244140625,0.06103515625
690,0.30517578125,0.67138671875,-0.18310546875,0.10986328125,-1.02392578125,0.06103515625
691,0.3662109375,0.48828125,-0.18310546875,0.10791015625,-1.025390625,0.05859375
692,0.6103515625,0.6103515625,-0.244140625,0.10791015625,-1.0244140625,0.056640625
693,0.67138671875,0.6103515625,-0.18310546875,0.10791015625,-1.02734375,0.0615234375
694,0.67138671875,0.6103515625,-0.30517578125,0.10595703125,-1.0283203125,0.0595703125
695,0.732421875,0.732421875,-0.30517578125,0.10888671875,-1.02587890625,0.0625
696,0.732421875,0.732421875,-0.30517578125,0.10791015625,-1.0234375,0.064453125
697,0.54931640625,0.732421875,-0.30517578125,0.10595703125,-1.0234375,0.06396484375
698,0.42724609375,0.67138671875,-0.30517578125,0.10546875,-1.0234375,0.060546875
699,0.3662109375,0.54931640625,-0.1220703125,0.109375,-1.0234375,0.06298828125
700,0.244140625,0.48828125,-0.06103515625,0.1064453125,-1.025390625,0.06396484375
701,0.244140625,0.48828125,-0.1220703125,0.109375,-1.02392578125,0.0625
702,0.18310546875,0.48828125,-0.06103515625,0.10986328125,-1.0244140625,0.06005859375
703,0.18310546875,0.6103515625,0.06103515625,0.10888671875,-1.025390625,0.0625
704,0.18310546875,0.6103515625,0.1220703125,0.10986328125,-1.02392578125,0.06591796875
705,0.1220703125,0.67138671875,0.244140625,0.11328125,-1.02099609375,0.064453125
706,-0.06103515625,0.79345703125,0.30517578125,0.10888671875,-1.02197265625,0.06591796875
707,-0.18310546875,0.67138671875,0.42724609375,0.1064453125,-1.0244140625,0.0615234375
708,-0.244140625,0.67138671875,0.6103515625,0.10400390625,-1.02587890625,0.0625
709,-0.1220703125,0.6103515625,0.6103515625,0.1064453125,-1.02685546875,0.0615234375
710,-0.1220703125,0.54931640625,0.6103515625,0.10498046875,-1.02880859375,0.0576171875
711,-0.18310546875,0.3662109375,0.48828125,0.10693359375,-1.02783203125,0.06494140625
712,-0.244140625,0.67138671875,0.42724609375,0.10498046875,-1.02734375,0.06103515625
713,-0.18310546875,0.79345703125,0.3662109375,0.107421875,-1.02734375,0.06640625
714,-0.244140625,0.79345703125,0.30517578125,0.10595703125,-1.02587890625,0.0625
715,-0.3662109375,0.8544921875,0.30517578125,0.10595703125,-1.0224609375,0.06591796875
716,-0.54931640625,0.6103515625,0.30517578125,0.10498046875,-1.02587890625,0.06689453125
717,-0.67138671875,0.54931640625,0.30517578125,0.10546875,-1.0283203125,0.05712890625
718,-0.67138671875,0.6103515625,0.30517578125,0.107421875,-1.02490234375,0.06298828125
719,-0.79345703125,0.3662109375,0.18310546875,0.10498046875,-1.0263671875,0.060546875
720,-0.732421875,0.54931640625,0.244140625,0.1015625,-1.02490234375,0.0625
721,-0.732421875,0.54931640625,0.18310546875,0.10400390625,-1.0263671875,0.05810546875
722,-0.6103515625,0.48828125,0.1220703125,0.10595703125,-1.029296875,0.0576171875
723,-0.54931640625,0.42724609375,0.1220703125,0.10546875,-1.02587890625,0.06103515625
724,-0.54931640625,0.48828125,0.06103515625,0.103515625,-1.0224609375,0.064453125
725,-0.6103515625,0.54931640625,0.1220703125,0.103515625,-1.02490234375,0.06103515625
726,-0.67138671875,0.42724609375,0.0,0.10546875,-1.02685546875,0.0625
727,-0.79345703125,0.30517578125,0.0,0.10498046875,-1.02685546875,0.06298828125
728,-1.03759765625,0.30517578125,-0.06103515625,0.10400390625,-1.025390625,0.06494140625
729,-0.9765625,0.244140625,-0.06103515625,0.1015625,-1.02587890625,0.05859375
730,-1.03759765625,0.244140625,-0.1220703125,0.103515625,-1.02587890625,0.06005859375
731,-1.15966796875,0.06103515625,-0.244140625,0.1044921875,-1.0263671875,0.05908203125
732,-1.0986328125,0.0,-0.18310546875,0.1044921875,-1.0234375,0.06103515625
733,-1.03759765625,0.0,-0.06103515625,0.10546875,-1.02587890625,0.05908203125
734,-1.0986328125,0.0,-0.06103515625,0.103515625,-1.025390625,0.060546875
735,-1.03759765625,-0.06103515625,0.0,0.1025390625,-1.0263671875,0.0615234375
736,-0.91552734375,-0.18310546875,0.0,0.103515625,-1.02734375,0.05908203125
737,-0.8544921875,-0.244140625,0.0,0.1015625,-1.02685546875,0.05712890625
738,-0.79345703125,-0.18310546875,-0.1220703125,0.1015625,-1.0283203125,0.05810546875
739,-0.732421875,-0.30517578125,-0.18310546875,0.1025390625,-1.02734375,0.0595703125
740,-0.79345703125,-0.42724609375,-0.30517578125,0.1025390625,-1.02490234375,0.05859375
741,-0.8544921875,-0.30517578125,-0.3662109375,0.10205078125,-1.02685546875,0.05908203125
742,-0.91552734375,-0.42724609375,-0.3662109375,0.1005859375,-1.03076171875,0.05908203125
743,-0.8544921875,-0.3662109375,-0.48828125,0.10498046875,-1.02490234375,0.05859375
744,-0.9765625,-0.244140625,-0.48828125,0.10107421875,-1.02734375,0.060546875
745,-1.0986328125,-0.30517578125,-0.54931640625,0.10302734375,-1.029296875,0.0576171875
746,-1.03759765625,-0.1220703125,-0.42724609375,0.10400390625,-1.02490234375,0.0595703125
747,-1.15966796875,-0.06103515625,-0.3662109375,0.1044921875,-1.02490234375,0.0595703125
748,-1.0986328125,-0.18310546875,-0.48828125,0.10400390625,-1.0244140625,0.056640625
749,-1.15966796875,-0.30517578125,-0.3662109375,0.10595703125,-1.02587890625,0.05810546875
750,-1.03759765625,-0.244140625,-0.3662109375,0.10546875,-1.0234375,0.056640625
751,-0.9765625,-0.06103515625,-0.42724609375,0.1044921875,-1.0263671875,0.05419921875
752,-0.8544921875,-0.1220703125,-0.42724609375,0.10107421875,-1.02880859375,0.05908203125
753,-0.79345703125,-0.1220703125,-0.48828125,0.10302734375,-1.0283203125,0.052734375
754,-0.8544921875,-0.18310546875,-0.48828125,0.103515625,-1.02783203125,0.05908203125
755,-0.67138671875,-0.1220703125,-0.48828125,0.10546875,-1.02734375,0.05517578125
756,-0.48828125,-0.244140625,-0.54931640625,0.1044921875,-1.029296875,0.06005859375
757,-0.3662109375,-0.244140625,-0.6103515625,0.10546875,-1.0263671875,0.0537109375
758,-0.3662109375,-0.3662109375,-0.54931640625,0.10302734375,-1.02685546875,0.05908203125
759,-0.30517578125,-0.6103515625,-0.6103515625,0.10205078125,-1.029296875,0.0595703125
760,-0.18310546875,-0.732421875,-0.67138671875,0.10302734375,-1.029296875,0.0556640625
761,0.0,-0.8544921875,-0.732421875,0.10400390625,-1.02587890625,0.05908203125
762,-0.06103515625,-0.8544921875,-0.79345703125,0.1044921875,-1.02587890625,0.056640625
763,-0.06103515625,-0.91552734375,-0.79345703125,0.10400390625,-1.0283203125,0.0576171875
764,0.0,-0.8544921875,-0.67138671875,0.1044921875,-1.02978515625,0.0556640625
765,0.244140625,-1.15966796875,-0.6103515625,0.1044921875,-1.02392578125,0.05419921875
766,0.1220703125,-0.91552734375,-0.54931640625,0.10498046875,-1.0263671875,0.06103515625
767,0.1220703125,-0.91552734375,-0.6103515625,0.1044921875,-1.0263671875,0.0546875
768,0.1220703125,-0.8544921875,-0.67138671875,0.10546875,-1.025390625,0.060546875
769,0.06103515625,-0.79345703125,-0.67138671875,0.10400390625,-1.02392578125,0.05712890625
770,-0.18310546875,-0.67138671875,-0.67138671875,0.10546875,-1.02392578125,0.06201171875
771,-0.30517578125,-0.6103515625,-0.48828125,0.103515625,-1.02587890625,0.05859375
772,-0.18310546875,-0.67138671875,-0.54931640625,0.10400390625,-1.02685546875,0.05419921875
773,-0.1220703125,-0.67138671875,-0.54931640625,0.10693359375,-1.02490234375,0.060546875
774,-0.1220703125,-0.6103515625,-0.48828125,0.10400390625,-1.02587890625,0.0595703125
775,-0.244140625,-0.54931640625,-0.42724609375,0.1064453125,-1.0244140625,0.05419921875
776,-0.244140625,-0.42724609375,-0.3662109375,0.10595703125,-1.0263671875,0.0625
777,-0.42724609375,-0.3662109375,-0.3662109375,0.10400390625,-1.02880859375,0.05712890625
778,-0.42724609375,-0.1220703125,-0.3662109375,0.1044921875,-1.0263671875,0.0546875
779,-0.42724609375,0.0,-0.3662109375,0.1044921875,-1.02294921875,0.0595703125
780,-0.48828125,0.06103515625,-0.3662109375,0.10791015625,-1.02783203125,0.05810546875
781,-0.6103515625,0.0,-0.42724609375,0.10595703125,-1.03125,0.0576171875
782,-0.54931640625,0.1220703125,-0.42724609375,0.10205078125,-1.02880859375,0.0537109375
783,-0.42724609375,0.1220703125,-0.48828125,0.1064453125,-1.02392578125,0.06103515625
784,-0.48828125,-0.06103515625,-0.6103515625,0.107421875,-1.0244140625,0.05810546875
785,-0.6103515625,0.0,-0.48828125,0.10498046875,-1.0283203125,0.0537109375
786,-0.48828125,-0.1220703125,-0.48828125,0.10498046875,-1.0263671875,0.0595703125
787,-0.54931640625,-0.3662109375,-0.42724609375,0.10498046875,-1.02734375,0.05419921875
788,-0.48828125,-0.42724609375,-0.42724609375,0.10693359375,-1.02490234375,0.05859375
789,-0.6103515625,-0.54931640625,-0.42724609375,0.10546875,-1.0244140625,0.0615234375
790,-0.732421875,-0.67138671875,-0.48828125,0.1025390625,-1.0263671875,0.05517578125
791,-0.79345703125,-0.8544921875,-0.42724609375,0.10302734375,-1.02783203125,0.0576171875
792,-0.54931640625,-0.8544921875,-0.6103515625,0.10498046875,-1.02734375,0.05615234375
793,-0.6103515625,-0.8544921875,-0.6103515625,0.107421875,-1.02587890625,0.05419921875
794,-0.91552734375,-0.6103515625,-0.54931640625,0.1064453125,-1.02392578125,0.0546875
795,-0.8544921875,-0.30517578125,-0.54931640625,0.1044921875,-1.02587890625,0.05322265625
796,-0.79345703125,-0.244140625,-0.6103515625,0.10400390625,-1.0263671875,0.0576171875
797,-0.67138671875,0.0,-0.6103515625,0.10302734375,-1.02587890625,0.0546875
798,-0.79345703125,0.0,-0.54931640625,0.1044921875,-1.025390625,0.05810546875
799,-0.79345703125,-0.30517578125,-0.6103515625,0.1044921875,-1.02392578125,0.05517578125
800,-0.9765625,-0.30517578125,-0.6103515625,0.103515625,-1.02685546875,0.056640625
801,-1.03759765625,-0.18310546875,-0.6103515625,0.10498046875,-1.02490234375,0.05517578125
802,-1.220703125,-0.30517578125,-0.6103515625,0.103515625,-1.02978515625,0.052734375
803,-1.15966796875,-0.30517578125,-0.67138671875,0.1025390625,-1.0263671875,0.05322265625
804,-1.0986328125,-0.3662109375,-0.6103515625,0.10546875,-1.0234375,0.056640625
805,-1.03759765625,-0.3662109375,-0.54931640625,0.1064453125,-1.02490234375,0.05078125
806,-1.03759765625,-0.42724609375,-0.48828125,0.1044921875,-1.02734375,0.0537109375
807,-0.67138671875,-0.42724609375,-0.42724609375,0.10498046875,-1.0263671875,0.04931640625
808,-0.3662109375,-0.54931640625,-0.48828125,0.103515625,-1.02734375,0.0556640625
809,-0.244140625,-0.6103515625,-0.48828125,0.10009765625,-1.02685546875,0.052734375
810,-0.18310546875,-0.67138671875,-0.48828125,0.103515625,-1.02685546875,0.05224609375
811,-0.18310546875,-0.48828125,-0.54931640625,0.10546875,-1.025390625,0.0576171875
812,-0.42724609375,-0.3662109375,-0.6103515625,0.1044921875,-1.02587890625,0.052734375
813,-0.54931640625,-0.30517578125,-0.6103515625,0.1044921875,-1.02685546875,0.05419921875
814,-0.30517578125,-0.18310546875,-0.6103515625,0.10498046875,-1.02587890625,0.05419921875
815,-0.42724609375,-0.244140625,-0.48828125,0.10693359375,-1.02392578125,0.056640625
816,-0.244140625,-0.30517578125,-0.42724609375,0.1044921875,-1.0244140625,0.052734375
817,-0.18310546875,-0.42724609375,-0.42724609375,0.107421875,-1.0244140625,0.05419921875
818,-0.244140625,-0.30517578125,-0.3662109375,0.10498046875,-1.025390625,0.05615234375
819,-0.244140625,-0.244140625,-0.30517578125,0.1025390625,-1.02587890625,0.05419921875
820,-0.42724609375,-0.244140625,-0.30517578125,0.10302734375,-1.02587890625,0.0537109375
821,-0.30517578125,-0.18310546875,-0.3662109375,0.10546875,-1.025390625,0.0546875
822,-0.30517578125,-0.18310546875,-0.18310546875,0.1064453125,-1.02685546875,0.0546875
823,-0.1220703125,-0.30517578125,-0.244140625,0.10546875,-1.02587890625,0.05078125
824,-0.06103515625,-0.3662109375,-0.244140625,0.10595703125,-1.02587890625,0.052734375
825,0.0,-0.3662109375,-0.18310546875,0.107421875,-1.02294921875,0.0546875
826,-0.06103515625,-0.18310546875,-0.06103515625,0.10791015625,-1.02490234375,0.0546875
827,-0.06103515625,-0.244140625,-0.06103515625,0.1044921875,-1.02734375,0.0537109375
828,0.0,-0.244140625,-0.06103515625,0.103515625,-1.0283203125,0.05419921875
829,0.06103515625,-0.18310546875,-0.06103515625,0.10400390625,-1.02587890625,0.05517578125
830,0.18310546875,-0.18310546875,-0.1220703125,0.10595703125,-1.02490234375,0.05419921875
831,0.18310546875,-0.30517578125,-0.18310546875,0.1025390625,-1.02880859375,0.05126953125
832,0.06103515625,-0.3662109375,-0.1220703125,0.1025390625,-1.02685546875,0.05517578125
833,0.0,-0.244140625,-0.244140625,0.10400390625,-1.0283203125,0.0517578125
834,0.06103515625,-0.1220703125,-0.30517578125,0.10498046875,-1.025390625,0.0546875
835,0.0,-0.06103515625,-0.3662109375,0.103515625,-1.02392578125,0.0576171875
836,-0.06103515625,0.06103515625,-0.3662109375,0.103515625,-1.02490234375,0.0546875
837,-0.18310546875,0.1220703125,-0.30517578125,0.10302734375,-1.0263671875,0.0556640625
838,-0.1220703125,0.06103515625,-0.30517578125,0.10400390625,-1.02783203125,0.052734375
839,-0.18310546875,0.18310546875,-0.42724609375,0.1044921875,-1.02587890625,0.05029296875
840,-0.18310546875,0.244140625,-0.48828125,0.10546875,-1.02294921875,0.0556640625
841,-0.244140625,0.244140625,-0.3662109375,0.10302734375,-1.0244140625,0.0556640625
842,-0.48828125,0.0,-0.30517578125,0.1025390625,-1.02392578125,0.0537109375
843,-0.42724609375,-0.1220703125,-0.30517578125,0.103515625,-1.02685546875,0.05322265625
844,-0.244140625,-0.18310546875,-0.244140625,0.1025390625,-1.02685546875,0.05029296875
845,-0.3662109375,-0.30517578125,-0.30517578125,0.10498046875,-1.02734375,0.05810546875
846,-0.48828125,-0.3662109375,-0.3662109375,0.103515625,-1.0234375,0.05322265625
847,-0.6103515625,-0.30517578125,-0.30517578125,0.10205078125,-1.02685546875,0.05615234375
848,-0.54931640625,-0.30517578125,-0.244140625,0.10302734375,-1.0263671875,0.05615234375
849,-0.6103515625,-0.30517578125,-0.30517578125,0.10400390625,-1.025390625,0.0546875
850,-0.79345703125,-0.3662109375,-0.244140625,0.10400390625,-1.02392578125,0.0546875
851,-0.732421875,-0.42724609375,-0.18310546875,0.10400390625,-1.0244140625,0.05517578125
852,-0.79345703125,-0.42724609375,-0.06103515625,0.10498046875,-1.02783203125,0.052734375
853,-0.91552734375,-0.42724609375,-0.18310546875,0.1015625,-1.025390625,0.052734375
854,-0.9765625,-0.42724609375,-0.18310546875,0.1005859375,-1.0244140625,0.0537109375
855,-1.0986328125,-0.42724609375,-0.244140625,0.10107421875,-1.02685546875,0.05029296875
856,-1.15966796875,-0.42724609375,-0.18310546875,0.1044921875,-1.0244140625,0.05078125
857,-1.0986328125,-0.42724609375,-0.1220703125,0.10302734375,-1.02587890625,0.052734375
858,-1.0986328125,-0.48828125,-0.1220703125,0.1044921875,-1.0283203125,0.05029296875
859,-1.0986328125,-0.48828125,-0.18310546875,0.10205078125,-1.02978515625,0.05078125
860,-1.0986328125,-0.42724609375,-0.18310546875,0.1025390625,-1.0283203125,0.05322265625
861,-1.03759765625,-0.48828125,-0.18310546875,0.10498046875,-1.02734375,0.05322265625
862,-1.03759765625,-0.48828125,-0.30517578125,0.10400390625,-1.02783203125,0.0517578125
863,-1.03759765625,-0.48828125,-0.30517578125,0.10205078125,-1.029296875,0.04833984375
864,-1.03759765625,-0.42724609375,-0.30517578125,0.1015625,-1.02783203125,0.04931640625
865,-0.8544921875,-0.3662109375,-0.3662109375,0.099609375,-1.0283203125,0.048828125
866,-0.732421875,-0.3662109375,-0.30517578125,0.10107421875,-1.02587890625,0.052734375
867,-0.732421875,-0.30517578125,-0.42724609375,0.10400390625,-1.0263671875,0.05078125
868,-0.732421875,-0.42724609375,-0.48828125,0.1015625,-1.02490234375,0.05517578125
869,-0.91552734375,-0.6103515625,-0.54931640625,0.1005859375,-1.0283203125,0.0478515625
870,-0.732421875,-0.3662109375,-0.54931640625,0.10400390625,-1.0263671875,0.04833984375
871,-0.79345703125,-0.244140625,-0.54931640625,0.10205078125,-1.02587890625,0.0556640625
872,-0.9765625,-0.30517578125,-0.54931640625,0.1025390625,-1.02587890625,0.0498046875
873,-1.03759765625,-0.244140625,-0.54931640625,0.1015625,-1.025390625,0.05322265625
874,-0.9765625,-0.1220703125,-0.6103515625,0.10107421875,-1.02978515625,0.04638671875
875,-0.9765625,-0.244140625,-0.54931640625,0.10498046875,-1.0263671875,0.048828125
876,-0.732421875,-0.1220703125,-0.54931640625,0.1025390625,-1.0234375,0.0498046875
877,-0.732421875,-0.1220703125,-0.48828125,0.10205078125,-1.02294921875,0.05126953125
878,-0.732421875,-0.244140625,-0.48828125,0.10498046875,-1.02734375,0.0478515625
879,-0.6103515625,-0.1220703125,-0.42724609375,0.10107421875,-1.02685546875,0.0478515625
880,-0.54931640625,-0.06103515625,-0.6103515625,0.10009765625,-1.02783203125,0.05029296875
881,-0.42724609375,0.1220703125,-0.732421875,0.099609375,-1.03369140625,0.0478515625
882,-0.42724609375,0.30517578125,-0.8544921875,0.1015625,-1.029296875,0.05078125
883,-0.6103515625,0.30517578125,-0.9765625,0.10205078125,-1.02783203125,0.05126953125
884,-0.67138671875,0.42724609375,-0.91552734375,0.103515625,-1.02392578125,0.046875
885,-0.54931640625,0.3662109375,-0.91552734375,0.10546875,-1.02294921875,0.052734375
886,-0.732421875,0.3662109375,-0.91552734375,0.10302734375,-1.0234375,0.048828125
887,-0.8544921875,0.1220703125,-0.79345703125,0.103515625,-1.02734375,0.05126953125
888,-0.6103515625,0.18310546875,-0.732421875,0.103515625,-1.0244140625,0.04736328125
889,-0.42724609375,0.06103515625,-0.67138671875,0.10302734375,-1.02587890625,0.05029296875
890,-0.244140625,0.1220703125,-0.67138671875,0.10107421875,-1.02685546875,0.0478515625
891,-0.30517578125,0.244140625,-0.6103515625,0.1044921875,-1.02685546875,0.048828125
892,-0.18310546875,0.3662109375,-0.6103515625,0.10546875,-1.02685546875,0.04833984375
893,-0.1220703125,0.42724609375,-0.6103515625,0.10205078125,-1.0283203125,0.04736328125
894,0.06103515625,0.42724609375,-0.6103515625,0.1015625,-1.0263671875,0.05029296875
895,0.1220703125,0.3662109375,-0.6103515625,0.1025390625,-1.02685546875,0.04833984375
896,-0.06103515625,0.18310546875,-0.67138671875,0.10302734375,-1.02880859375,0.04638671875
897,-0.06103515625,0.244140625,-0.8544921875,0.1015625,-1.02685546875,0.0478515625
898,-0.18310546875,0.244140625,-0.8544921875,0.10107421875,-1.02783203125,0.04931640625
899,-0.30517578125,0.30517578125,-0.91552734375,0.10302734375,-1.02685546875,0.05126953125
900,-0.244140625,0.54931640625,-1.03759765625,0.10400390625,-1.02587890625,0.04931640625
901,-0.30517578125,0.6103515625,-0.8544921875,0.103515625,-1.02392578125,0.05224609375
902,-0.3662109375,0.54931640625,-0.91552734375,0.10498046875,-1.02587890625,0.0517578125
903,-0.18310546875,0.48828125,-0.9765625,0.1025390625,-1.02685546875,0.04345703125
904,0.06103515625,0.54931640625,-0.8544921875,0.10546875,-1.02685546875,0.046875
905,0.06103515625,0.6103515625,-0.79345703125,0.10302734375,-1.02685546875,0.04736328125
906,0.1220703125,0.79345703125,-0.91552734375,0.10107421875,-1.03076171875,0.0458984375
907,0.3662109375,0.732421875,-1.03759765625,0.10302734375,-1.03125,0.0458984375
908,0.67138671875,1.0986328125,-1.03759765625,0.10693359375,-1.025390625,0.048828125
909,0.54931640625,1.15966796875,-1.03759765625,0.10400390625,-1.025390625,0.04931640625
910,0.42724609375,0.91552734375,-1.15966796875,0.103515625,-1.02392578125,0.048828125
911,0.6103515625,0.67138671875,-1.0986328125,0.10498046875,-1.025390625,0.04736328125
912,0.732421875,0.79345703125,-1.15966796875,0.1044921875,-1.0263671875,0.04833984375
913,0.732421875,0.79345703125,-1.220703125,0.1044921875,-1.02587890625,0.05126953125
914,0.54931640625,0.67138671875,-1.28173828125,0.10498046875,-1.0244140625,0.05419921875
915,0.48828125,0.732421875,-1.28173828125,0.10302734375,-1.02880859375,0.04931640625
916,0.48828125,0.8544921875,-1.3427734375,0.103515625,-1.0283203125,0.04736328125
917,0.3662109375,1.03759765625,-1.40380859375,0.10400390625,-1.02392578125,0.0517578125
918,0.30517578125,0.8544921875,-1.40380859375,0.10546875,-1.02685546875,0.05322265625
919,0.18310546875,0.8544921875,-1.46484375,0.103515625,-1.0263671875,0.04833984375
920,0.18310546875,0.79345703125,-1.28173828125,0.10791015625,-1.0234375,0.048828125
921,0.244140625,0.9765625,-1.28173828125,0.10888671875,-1.0234375,0.048828125
922,0.30517578125,1.03759765625,-1.220703125,0.1064453125,-1.02490234375,0.04931640625
923,0.42724609375,0.91552734375,-1.0986328125,0.10693359375,-1.025390625,0.04833984375
924,0.48828125,0.9765625,-0.9765625,0.1064453125,-1.02490234375,0.04931640625
925,0.54931640625,0.9765625,-0.8544921875,0.10546875,-1.0224609375,0.05078125
926,0.48828125,0.91552734375,-0.8544921875,0.107421875,-1.02587890625,0.05224609375
927,0.6103515625,0.91552734375,-0.8544921875,0.103515625,-1.0244140625,0.05126953125
928,0.54931640625,0.79345703125,-0.732421875,0.1064453125,-1.0283203125,0.05126953125
929,0.48828125,0.91552734375,-0.732421875,0.10546875,-1.0244140625,0.0537109375
930,0.6103515625,0.732421875,-0.79345703125,0.1064453125,-1.029296875,0.05029296875
931,0.6103515625,0.8544921875,-0.8544921875,0.1064453125,-1.02587890625,0.05078125
932,0.6103515625,0.8544921875,-0.732421875,0.10693359375,-1.0283203125,0.05126953125
933,0.6103515625,0.8544921875,-0.67138671875,0.1064453125,-1.02490234375,0.0517578125
934,0.6103515625,0.79345703125,-0.6103515625,0.103515625,-1.02197265625,0.05224609375
935,0.67138671875,0.79345703125,-0.67138671875,0.10546875,-1.025390625,0.05029296875
936,0.67138671875,0.8544921875,-0.6103515625,0.10546875,-1.0263671875,0.05078125
937,0.79345703125,0.91552734375,-0.54931640625,0.10595703125,-1.025390625,0.0517578125
938,0.8544921875,0.8544921875,-0.54931640625,0.10791015625,-1.02685546875,0.05224609375
939,0.8544921875,0.8544921875,-0.54931640625,0.1064453125,-1.0244140625,0.0537109375
940,0.91552734375,0.54931640625,-0.6103515625,0.10498046875,-1.029296875,0.0517578125
941,0.8544921875,0.6103515625,-0.732421875,0.103515625,-1.0263671875,0.0517578125
942,0.8544921875,0.48828125,-0.732421875,0.10693359375,-1.0263671875,0.0556640625
943,0.67138671875,0.54931640625,-0.6103515625,0.10498046875,-1.0244140625,0.05712890625
944,0.3662109375,0.54931640625,-0.67138671875,0.10498046875,-1.02490234375,0.0546875
945,0.244140625,0.42724609375,-0.67138671875,0.10693359375,-1.02099609375,0.05517578125
946,0.1220703125,0.244140625,-0.42724609375,0.10791015625,-1.02099609375,0.052734375
947,-0.1220703125,0.06103515625,-0.30517578125,0.10693359375,-1.0224609375,0.0546875
948,-0.18310546875,-0.06103515625,-0.18310546875,0.10888671875,-1.0234375,0.0546875
949,-0.06103515625,-0.1220703125,0.0,0.1083984375,-1.0244140625,0.05322265625
950,0.06103515625,-0.18310546875,0.0,0.1064453125,-1.02587890625,0.0517578125
951,0.0,-0.244140625,-0.06103515625,0.10498046875,-1.02734375,0.0556640625
952,0.0,-0.244140625,-0.06103515625,0.10546875,-1.02734375,0.05126953125
953,0.1220703125,-0.06103515625,-0.06103515625,0.1044921875,-1.02587890625,0.052734375
954,0.0,-0.1220703125,-0.1220703125,0.10693359375,-1.02392578125,0.05419921875
955,-0.1220703125,-0.18310546875,0.0,0.10693359375,-1.0234375,0.0556640625
956,-0.244140625,-0.244140625,0.06103515625,0.10693359375,-1.02783203125,0.05517578125
957,-0.30517578125,-0.18310546875,0.0,0.10302734375,-1.02587890625,0.05322265625
958,-0.3662109375,-0.3662109375,0.06103515625,0.103515625,-1.0263671875,0.05810546875
959,-0.54931640625,-0.42724609375,-0.06103515625,0.10498046875,-1.02587890625,0.05419921875
960,-0.67138671875,-0.30517578125,-0.1220703125,0.10595703125,-1.02685546875,0.052734375
961,-0.48828125,-0.18310546875,-0.18310546875,0.10302734375,-1.0263671875,0.05078125
962,-0.42724609375,-0.244140625,-0.244140625,0.10546875,-1.025390625,0.0498046875
963,-0.3662109375,-0.244140625,-0.1220703125,0.10791015625,-1.025390625,0.052734375
964,-0.42724609375,-0.18310546875,-0.18310546875,0.1064453125,-1.02587890625,0.05224609375
965,-0.42724609375,-0.30517578125,-0.244140625,0.10595703125,-1.0263671875,0.05224609375
966,-0.42724609375,-0.3662109375,-0.18310546875,0.10498046875,-1.02587890625,0.05322265625
967,-0.30517578125,-0.30517578125,-0.18310546875,0.10595703125,-1.0244140625,0.05126953125
968,-0.244140625,-0.244140625,-0.30517578125,0.1044921875,-1.02685546875,0.0537109375
969,-0.3662109375,-0.18310546875,-0.244140625,0.10546875,-1.02734375,0.0537109375
970,-0.30517578125,-0.1220703125,-0.30517578125,0.10546875,-1.02490234375,0.05322265625
971,-0.30517578125,-0.1220703125,-0.3662109375,0.10693359375,-1.02392578125,0.0517578125
972,-0.244140625,-0.1220703125,-0.3662109375,0.10400390625,-1.025390625,0.05224609375
973,-0.1220703125,-0.18310546875,-0.30517578125,0.10546875,-1.0263671875,0.05126953125
974,-0.18310546875,-0.18310546875,-0.30517578125,0.10400390625,-1.029296875,0.05029296875
975,-0.18310546875,-0.30517578125,-0.30517578125,0.10546875,-1.029296875,0.04931640625
976,0.0,-0.30517578125,-0.3662109375,0.10400390625,-1.0244140625,0.05322265625
977,-0.18310546875,-0.18310546875,-0.3662109375,0.103515625,-1.0263671875,0.05517578125
978,-0.244140625,-0.3662109375,-0.30517578125,0.103515625,-1.0283203125,0.05126953125
979,-0.1220703125,-0.42724609375,-0.3662109375,0.1044921875,-1.025390625,0.052734375
980,-0.18310546875,-0.244140625,-0.48828125,0.1064453125,-1.02685546875,0.0537109375
981,-0.18310546875,-0.3662109375,-0.3662109375,0.103515625,-1.0244140625,0.0537109375
982,-0.18310546875,-0.42724609375,-0.30517578125,0.10546875,-1.0234375,0.0537109375
983,-0.244140625,-0.3662109375,-0.3662109375,0.10498046875,-1.02587890625,0.05517578125
984,-0.244140625,-0.48828125,-0.3662109375,0.10498046875,-1.02294921875,0.05615234375
985,-0.30517578125,-0.48828125,-0.3662109375,0.10498046875,-1.02392578125,0.0537109375
986,-0.3662109375,-0.42724609375,-0.3662109375,0.103515625,-1.02734375,0.0517578125
987,-0.42724609375,-0.30517578125,-0.30517578125,0.10400390625,-1.02587890625,0.0498046875
988,-0.54931640625,-0.3662109375,-0.3662109375,0.1044921875,-1.02587890625,0.052734375
989,-0.48828125,-0.30517578125,-0.3662109375,0.103515625,-1.02783203125,0.05126953125
990,-0.48828125,-0.18310546875,-0.30517578125,0.10400390625,-1.02734375,0.052734375
991,-0.54931640625,0.06103515625,-0.244140625,0.10400390625,-1.0263671875,0.052734375
992,-0.67138671875,0.1220703125,-0.30517578125,0.10400390625,-1.02734375,0.052734375
993,-0.732421875,0.06103515625,-0.244140625,0.10302734375,-1.02490234375,0.0498046875
994,-0.6103515625,0.244140625,-0.30517578125,0.1015625,-1.02490234375,0.0517578125
995,-0.67138671875,0.244140625,-0.30517578125,0.10107421875,-1.02587890625,0.0546875
996,-0.79345703125,0.1220703125,-0.30517578125,0.10595703125,-1.02490234375,0.0498046875
997,-0.732421875,0.244140625,-0.30517578125,0.10302734375,-1.02734375,0.04931640625
998,-0.42724609375,0.54931640625,-0.30517578125,0.1025390625,-1.02587890625,0.05029296875
999,-0.54931640625,0.3662109375,-0.244140625,0.10400390625,-1.02783203125,0.0546875
1000,-0.42724609375,0.30517578125,-0.3662109375,0.10302734375,-1.03125,0.0458984375
1001,-0.48828125,0.48828125,-0.42724609375,0.10400390625,-1.0283203125,0.05029296875
1002,-0.30517578125,0.54931640625,-0.42724609375,0.1064453125,-1.0244140625,0.05224609375
1003,-0.244140625,0.48828125,-0.48828125,0.10302734375,-1.02587890625,0.05078125
1004,-0.18310546875,0.3662109375,-0.54931640625,0.10302734375,-1.02880859375,0.0478515625
1005,-0.06103515625,0.42724609375,-0.67138671875,0.10498046875,-1.02978515625,0.04736328125
1006,-0.1220703125,0.79345703125,-0.732421875,0.1044921875,-1.0283203125,0.05224609375
1007,0.0,0.91552734375,-0.79345703125,0.10498046875,-1.02783203125,0.05126953125
1008,0.0,1.0986328125,-0.91552734375,0.1025390625,-1.02880859375,0.0498046875
1009,0.06103515625,1.3427734375,-1.0986328125,0.1005859375,-1.02783203125,0.05224609375
1010,0.18310546875,1.28173828125,-1.15966796875,0.10693359375,-1.02685546875,0.05029296875
1011,0.1220703125,1.28173828125,-1.15966796875,0.10546875,-1.0263671875,0.0517578125
1012,0.06103515625,1.03759765625,-1.220703125,0.103515625,-1.02734375,0.05419921875
1013,0.0,0.9765625,-1.15966796875,0.10400390625,-1.025390625,0.05029296875
1014,-0.06103515625,1.03759765625,-1.0986328125,0.10791015625,-1.02783203125,0.05126953125
1015,0.244140625,1.28173828125,-1.0986328125,0.1064453125,-1.0234375,0.05029296875
1016,0.3662109375,1.220703125,-1.0986328125,0.107421875,-1.0234375,0.04833984375
1017,0.42724609375,1.220703125,-1.03759765625,0.10498046875,-1.0263671875,0.046875
1018,0.6103515625,1.3427734375,-0.9765625,0.10546875,-1.02734375,0.048828125
1019,0.732421875,1.40380859375,-0.9765625,0.10498046875,-1.0234375,0.0517578125
1020,0.6103515625,1.3427734375,-1.03759765625,0.10498046875,-1.025390625,0.0537109375
1021,0.67138671875,1.28173828125,-0.91552734375,0.10400390625,-1.02392578125,0.05419921875
1022,0.67138671875,1.28173828125,-0.79345703125,0.10693359375,-1.0263671875,0.05126953125
1023,0.6103515625,1.0986328125,-0.732421875,0.1083984375,-1.0224609375,0.0517578125
1024,0.67138671875,0.91552734375,-0.67138671875,0.1083984375,-1.0234375,0.0517578125
1025,0.732421875,1.03759765625,-0.6103515625,0.10595703125,-1.02587890625,0.05126953125
1026,0.732421875,0.9765625,-0.6103515625,0.10546875,-1.02734375,0.05322265625
1027,0.91552734375,0.9765625,-0.54931640625,0.10498046875,-1.0234375,0.04931640625
1028,0.79345703125,0.91552734375,-0.54931640625,0.10498046875,-1.02490234375,0.0556640625
1029,0.732421875,0.732421875,-0.54931640625,0.10400390625,-1.02783203125,0.052734375
1030,0.6103515625,0.6103515625,-0.48828125,0.10595703125,-1.02392578125,0.05322265625
1031,0.67138671875,0.6103515625,-0.42724609375,0.10400390625,-1.0244140625,0.05322265625
1032,0.48828125,0.6103515625,-0.48828125,0.107421875,-1.02783203125,0.05322265625
1033,0.54931640625,0.8544921875,-0.54931640625,0.10546875,-1.02734375,0.05126953125
1034,0.48828125,0.8544921875,-0.48828125,0.10498046875,-1.0244140625,0.05517578125
1035,0.6103515625,0.67138671875,-0.42724609375,0.10693359375,-1.02294921875,0.05322265625
1036,0.48828125,0.54931640625,-0.30517578125,0.109375,-1.0234375,0.05517578125
1037,0.3662109375,0.48828125,-0.30517578125,0.10791015625,-1.0244140625,0.05224609375
1038,0.42724609375,0.54931640625,-0.244140625,0.10693359375,-1.0224609375,0.05419921875
1039,0.3662109375,0.67138671875,-0.244140625,0.107421875,-1.0263671875,0.0537109375
1040,0.48828125,0.8544921875,-0.244140625,0.10693359375,-1.0263671875,0.052734375
1041,0.6103515625,0.9765625,-0.30517578125,0.1044921875,-1.02978515625,0.05322265625
1042,0.732421875,0.9765625,-0.30517578125,0.1044921875,-1.02685546875,0.0546875
1043,0.67138671875,0.9765625,-0.244140625,0.10498046875,-1.025390625,0.0537109375
1044,0.42724609375,0.91552734375,-0.30517578125,0.10498046875,-1.02685546875,0.05517578125
1045,0.54931640625,0.91552734375,-0.3662109375,0.10498046875,-1.0283203125,0.05224609375
1046,0.48828125,1.03759765625,-0.3662109375,0.10400390625,-1.02685546875,0.05419921875
1047,0.48828125,1.03759765625,-0.30517578125,0.10498046875,-1.025390625,0.05419921875
1048,0.42724609375,0.9765625,-0.42724609375,0.1044921875,-1.02392578125,0.05517578125
1049,0.244140625,0.732421875,-0.42724609375,0.103515625,-1.0244140625,0.0556640625
1050,0.18310546875,0.48828125,-0.42724609375,0.10498046875,-1.0224609375,0.0556640625
1051,0.0,0.3662109375,-0.3662109375,0.1044921875,-1.0224609375,0.0576171875
1052,-0.244140625,0.30517578125,-0.30517578125,0.10595703125,-1.02587890625,0.0576171875
1053,-0.244140625,0.18310546875,-0.30517578125,0.10546875,-1.0263671875,0.052734375
1054,-0.48828125,0.244140625,-0.3662109375,0.10791015625,-1.025390625,0.0546875
1055,-0.6103515625,0.3662109375,-0.3662109375,0.1064453125,-1.0234375,0.0546875
1056,-0.91552734375,0.1220703125,-0.42724609375,0.10498046875,-1.02734375,0.05517578125
1057,-1.03759765625,0.1220703125,-0.48828125,0.10595703125,-1.0244140625,0.05615234375
1058,-1.28173828125,0.06103515625,-0.3662109375,0.103515625,-1.0244140625,0.056640625
1059,-1.40380859375,-0.244140625,-0.3662109375,0.10546875,-1.025390625,0.05615234375
1060,-1.5869140625,-0.3662109375,-0.3662109375,0.10546875,-1.02685546875,0.052734375
1061,-1.708984375,-0.3662109375,-0.42724609375,0.1044921875,-1.02734375,0.052734375
1062,-1.89208984375,-0.30517578125,-0.48828125,0.1044921875,-1.0263671875,0.05419921875
1063,-1.89208984375,-0.42724609375,-0.54931640625,0.10400390625,-1.02685546875,0.05419921875
1064,-2.01416015625,-0.3662109375,-0.48828125,0.107421875,-1.02587890625,0.0537109375
1065,-2.01416015625,-0.42724609375,-0.3662109375,0.10595703125,-1.02392578125,0.0537109375
1066,-2.13623046875,-0.48828125,-0.48828125,0.10400390625,-1.02392578125,0.05224609375
1067,-2.25830078125,-0.54931640625,-0.42724609375,0.10302734375,-1.02490234375,0.0546875
1068,-2.197265625,-0.48828125,-0.3662109375,0.1064453125,-1.02685546875,0.0498046875
1069,-2.13623046875,-0.48828125,-0.48828125,0.1044921875,-1.02490234375,0.04931640625
1070,-2.01416015625,-0.42724609375,-0.54931640625,0.10400390625,-1.025390625,0.05078125
1071,-2.01416015625,-0.67138671875,-0.54931640625,0.1064453125,-1.02880859375,0.0498046875
1072,-1.77001953125,-0.67138671875,-0.54931640625,0.10595703125,-1.0263671875,0.04638671875
1073,-1.52587890625,-0.6103515625,-0.54931640625,0.10693359375,-1.0263671875,0.05322265625
1074,-1.52587890625,-0.67138671875,-0.42724609375,0.10546875,-1.02734375,0.0498046875
1075,-1.40380859375,-0.54931640625,-0.48828125,0.10400390625,-1.02734375,0.04443359375
1076,-1.0986328125,-0.30517578125,-0.48828125,0.10302734375,-1.0302734375,0.04833984375
1077,-0.732421875,-0.3662109375,-0.67138671875,0.1044921875,-1.0283203125,0.046875
1078,-0.6103515625,-0.6103515625,-0.67138671875,0.10546875,-1.02734375,0.05126953125
1079,-0.79345703125,-0.67138671875,-0.54931640625,0.10498046875,-1.02490234375,0.05078125
1080,-0.91552734375,-0.8544921875,-0.67138671875,0.10205078125,-1.0234375,0.04736328125
1081,-0.91552734375,-0.9765625,-0.67138671875,0.103515625,-1.025390625,0.05322265625
1082,-0.79345703125,-1.03759765625,-0.67138671875,0.10546875,-1.0244140625,0.052734375
1083,-0.91552734375,-1.03759765625,-0.6103515625,0.10595703125,-1.02490234375,0.04931640625
1084,-0.91552734375,-1.15966796875,-0.48828125,0.107421875,-1.02392578125,0.0478515625
1085,-0.67138671875,-1.15966796875,-0.48828125,0.103515625,-1.02587890625,0.048828125
1086,-0.3662109375,-1.28173828125,-0.54931640625,0.1044921875,-1.02783203125,0.0439453125
1087,-0.244140625,-1.40380859375,-0.54931640625,0.103515625,-1.0263671875,0.04736328125
1088,-0.1220703125,-1.46484375,-0.6103515625,0.1025390625,-1.02685546875,0.04736328125
1089,0.0,-1.46484375,-0.67138671875,0.1044921875,-1.02685546875,0.048828125
1090,0.0,-1.52587890625,-0.67138671875,0.10498046875,-1.02685546875,0.048828125
1091,-0.18310546875,-1.40380859375,-0.67138671875,0.10546875,-1.02392578125,0.05224609375
1092,-0.18310546875,-1.46484375,-0.67138671875,0.10595703125,-1.0224609375,0.05029296875
1093,-0.1220703125,-1.3427734375,-0.6103515625,0.10791015625,-1.02490234375,0.0478515625
1094,-0.06103515625,-1.220703125,-0.6103515625,0.107421875,-1.02734375,0.04833984375
1095,0.1220703125,-0.9765625,-0.54931640625,0.1064453125,-1.02734375,0.044921875
1096,0.244140625,-0.79345703125,-0.48828125,0.10693359375,-1.02734375,0.04833984375
1097,0.54931640625,-0.732421875,-0.42724609375,0.10400390625,-1.02783203125,0.04638671875
1098,0.6103515625,-0.732421875,-0.42724609375,0.103515625,-1.029296875,0.048828125
1099,0.67138671875,-0.79345703125,-0.48828125,0.10546875,-1.02978515625,0.04736328125
1100,0.732421875,-0.6103515625,-0.48828125,0.1044921875,-1.02587890625,0.0498046875
1101,0.91552734375,-0.3662109375,-0.48828125,0.10498046875,-1.02490234375,0.0478515625
1102,0.8544921875,-0.42724609375,-0.6103515625,0.10595703125,-1.029296875,0.04541015625
1103,1.03759765625,-0.30517578125,-0.67138671875,0.10498046875,-1.0283203125,0.04833984375
1104,1.03759765625,-0.1220703125,-0.67138671875,0.10400390625,-1.02783203125,0.0478515625
1105,0.91552734375,-0.06103515625,-0.79345703125,0.10498046875,-1.02783203125,0.048828125
1106,0.9765625,0.0,-0.91552734375,0.10546875,-1.02685546875,0.04833984375
1107,0.79345703125,0.18310546875,-0.91552734375,0.10693359375,-1.025390625,0.052734375
1108,0.79345703125,0.30517578125,-0.91552734375,0.10693359375,-1.02734375,0.0517578125
1109,0.91552734375,0.3662109375,-0.79345703125,0.10498046875,-1.02490234375,0.048828125
1110,0.8544921875,0.244140625,-0.79345703125,0.10595703125,-1.02734375,0.05029296875
1111,0.8544921875,0.3662109375,-0.79345703125,0.10400390625,-1.02587890625,0.05078125
1112,0.91552734375,0.48828125,-0.8544921875,0.10400390625,-1.02734375,0.04638671875
1113,1.03759765625,0.30517578125,-0.91552734375,0.10595703125,-1.02880859375,0.05126953125
1114,1.0986328125,0.30517578125,-0.8544921875,0.10595703125,-1.02490234375,0.0498046875
1115,1.0986328125,0.30517578125,-0.9765625,0.107421875,-1.0244140625,0.05224609375
1116,1.0986328125,0.244140625,-0.91552734375,0.10546875,-1.02587890625,0.05322265625
1117,0.9765625,0.3662109375,-0.8544921875,0.10595703125,-1.02490234375,0.0537109375
1118,0.9765625,0.67138671875,-0.79345703125,0.10400390625,-1.02490234375,0.05224609375
1119,0.9765625,0.91552734375,-0.732421875,0.1064453125,-1.0263671875,0.0498046875
1120,1.0986328125,1.220703125,-0.8544921875,0.1083984375,-1.02587890625,0.0517578125
1121,1.15966796875,1.40380859375,-0.91552734375,0.10595703125,-1.025390625,0.05078125
1122,1.15966796875,1.46484375,-0.8544921875,0.1044921875,-1.02685546875,0.05322265625
1123,1.28173828125,1.52587890625,-0.91552734375,0.1064453125,-1.0244140625,0.05419921875
1124,1.15966796875,1.64794921875,-0.8544921875,0.10693359375,-1.02587890625,0.052734375
1125,1.15966796875,1.5869140625,-0.79345703125,0.10595703125,-1.02587890625,0.052734375
1126,1.220703125,1.52587890625,-0.91552734375,0.10546875,-1.02587890625,0.05419921875
1127,1.0986328125,1.5869140625,-0.91552734375,0.1064453125,-1.0283203125,0.052734375
1128,1.220703125,1.52587890625,-0.8544921875,0.10693359375,-1.02734375,0.0498046875
1129,1.40380859375,1.52587890625,-0.8544921875,0.107421875,-1.025390625,0.05029296875
1130,1.46484375,1.46484375,-0.732421875,0.10986328125,-1.02392578125,0.05517578125
1131,1.28173828125,1.5869140625,-0.732421875,0.1064453125,-1.0263671875,0.05517578125
1132,1.40380859375,1.28173828125,-0.79345703125,0.1064453125,-1.02978515625,0.05224609375
1133,1.46484375,1.52587890625,-0.8544921875,0.10546875,-1.02734375,0.05517578125
1134,1.52587890625,1.64794921875,-0.8544921875,0.10791015625,-1.02294921875,0.0556640625
1135,1.220703125,1.3427734375,-0.8544921875,0.1064453125,-1.0244140625,0.05859375
1136,1.15966796875,1.3427734375,-0.8544921875,0.10546875,-1.025390625,0.05517578125
1137,1.15966796875,1.0986328125,-0.8544921875,0.109375,-1.02587890625,0.05224609375
1138,1.0986328125,1.220703125,-0.8544921875,0.1064453125,-1.0263671875,0.05712890625
1139,0.9765625,1.220703125,-0.91552734375,0.10595703125,-1.02880859375,0.06005859375
1140,0.79345703125,1.28173828125,-0.91552734375,0.107421875,-1.02685546875,0.05712890625
1141,0.9765625,1.28173828125,-0.91552734375,0.1083984375,-1.02734375,0.05126953125
1142,0.9765625,1.64794921875,-0.9765625,0.10888671875,-1.02392578125,0.05908203125
1143,0.79345703125,1.708984375,-0.9765625,0.10986328125,-1.02685546875,0.0537109375
1144,0.8544921875,1.77001953125,-0.91552734375,0.109375,-1.02490234375,0.05517578125
1145,0.9765625,1.8310546875,-0.8544921875,0.107421875,-1.02685546875,0.05322265625
1146,1.0986328125,1.8310546875,-0.8544921875,0.107421875,-1.025390625,0.056640625
1147,1.03759765625,1.8310546875,-0.732421875,0.109375,-1.02099609375,0.06103515625
1148,1.03759765625,1.708984375,-0.79345703125,0.1103515625,-1.0244140625,0.05908203125
1149,1.03759765625,1.64794921875,-0.79345703125,0.11083984375,-1.0224609375,0.05859375
1150,1.03759765625,1.5869140625,-0.67138671875,0.109375,-1.0244140625,0.056640625
1151,0.91552734375,1.708984375,-0.6103515625,0.1083984375,-1.02783203125,0.05517578125
1152,0.91552734375,1.64794921875,-0.6103515625,0.10693359375,-1.02685546875,0.05615234375
1153,1.03759765625,1.708984375,-0.67138671875,0.109375,-1.02392578125,0.0595703125
1154,0.9765625,2.01416015625,-0.79345703125,0.1103515625,-1.02490234375,0.05859375
1155,1.03759765625,2.01416015625,-0.732421875,0.10693359375,-1.0244140625,0.05810546875
1156,1.0986328125,2.01416015625,-0.67138671875,0.10791015625,-1.0263671875,0.056640625
1157,1.0986328125,1.953125,-0.67138671875,0.10693359375,-1.0244140625,0.060546875
1158,0.9765625,1.8310546875,-0.732421875,0.10546875,-1.02734375,0.0595703125
1159,0.8544921875,1.77001953125,-0.79345703125,0.10693359375,-1.025390625,0.0615234375
1160,0.91552734375,1.708984375,-0.79345703125,0.10888671875,-1.025390625,0.0615234375
1161,0.8544921875,1.8310546875,-0.79345703125,0.10986328125,-1.02490234375,0.0625
1162,0.91552734375,1.89208984375,-0.732421875,0.1083984375,-1.02783203125,0.0556640625
1163,1.03759765625,1.77001953125,-0.8544921875,0.10888671875,-1.02783203125,0.0546875
1164,1.220703125,1.89208984375,-0.8544921875,0.10888671875,-1.02685546875,0.05810546875
1165,1.28173828125,1.708984375,-0.8544921875,0.107421875,-1.025390625,0.06005859375
1166,1.28173828125,1.708984375,-0.8544921875,0.1083984375,-1.0263671875,0.06103515625
1167,1.3427734375,1.64794921875,-0.91552734375,0.1064453125,-1.02490234375,0.06103515625
1168,1.28173828125,1.64794921875,-0.91552734375,0.10986328125,-1.02392578125,0.0595703125
1169,1.28173828125,1.64794921875,-0.91552734375,0.10888671875,-1.02490234375,0.060546875
1170,1.28173828125,1.5869140625,-0.91552734375,0.10791015625,-1.0244140625,0.06103515625
1171,1.220703125,1.52587890625,-1.03759765625,0.10888671875,-1.02783203125,0.05712890625
1172,1.3427734375,1.64794921875,-1.0986328125,0.1083984375,-1.0283203125,0.06494140625
1173,1.40380859375,1.64794921875,-1.0986328125,0.107421875,-1.0263671875,0.06201171875
1174,1.220703125,1.40380859375,-1.0986328125,0.10888671875,-1.02685546875,0.0625
1175,1.220703125,1.40380859375,-1.15966796875,0.1103515625,-1.0283203125,0.0615234375
1176,0.9765625,1.220703125,-1.0986328125,0.1083984375,-1.0244140625,0.0654296875
1177,0.732421875,0.8544921875,-1.15966796875,0.107421875,-1.02197265625,0.0654296875
1178,0.54931640625,0.42724609375,-1.0986328125,0.1083984375,-1.025390625,0.0625
1179,0.3662109375,0.1220703125,-1.03759765625,0.109375,-1.02197265625,0.0615234375
1180,0.1220703125,-0.244140625,-1.03759765625,0.10888671875,-1.025390625,0.0625
1181,0.30517578125,-0.54931640625,-1.03759765625,0.111328125,-1.025390625,0.0634765625
1182,0.3662109375,-0.6103515625,-1.03759765625,0.1083984375,-1.02392578125,0.064453125
1183,0.18310546875,-0.54931640625,-1.15966796875,0.11181640625,-1.0244140625,0.06591796875
1184,0.30517578125,-0.244140625,-1.15966796875,0.1103515625,-1.02099609375,0.0625
1185,0.06103515625,0.0,-1.03759765625,0.11181640625,-1.02490234375,0.068359375
1186,-0.244140625,0.30517578125,-0.9765625,0.10888671875,-1.0263671875,0.06103515625
1187,-0.18310546875,0.42724609375,-0.9765625,0.111328125,-1.02392578125,0.0615234375
1188,-0.18310546875,0.67138671875,-0.91552734375,0.11376953125,-1.01904296875,0.06591796875
1189,-0.48828125,0.79345703125,-0.6103515625,0.111328125,-1.017578125,0.0712890625
1190,-0.9765625,0.54931640625,-0.48828125,0.111328125,-1.01904296875,0.0693359375
1191,-1.40380859375,0.18310546875,-0.3662109375,0.11474609375,-1.0205078125,0.06884765625
1192,-1.8310546875,0.0,-0.18310546875,0.1103515625,-1.02294921875,0.06396484375
1193,-2.13623046875,-0.30517578125,0.06103515625,0.1123046875,-1.0205078125,0.06396484375
1194,-2.3193359375,-0.732421875,0.18310546875,0.11376953125,-1.02197265625,0.060546875
1195,-2.197265625,-0.67138671875,0.244140625,0.11572265625,-1.02001953125,0.0634765625
1196,-2.0751953125,-0.3662109375,0.42724609375,0.1123046875,-1.021484375,0.0615234375
1197,-2.197265625,-0.48828125,0.54931640625,0.11083984375,-1.029296875,0.06005859375
1198,-2.01416015625,-0.06103515625,0.6103515625,0.111328125,-1.02587890625,0.06103515625
1199,-2.01416015625,0.18310546875,0.54931640625,0.111328125,-1.0224609375,0.06494140625
1200,-2.197265625,0.18310546875,0.48828125,0.1083984375,-1.02783203125,0.060546875
1201,-2.25830078125,0.3662109375,0.48828125,0.109375,-1.02587890625,0.05810546875
1202,-2.50244140625,0.48828125,0.48828125,0.10791015625,-1.02587890625,0.06298828125
1203,-2.5634765625,0.42724609375,0.30517578125,0.10986328125,-1.025390625,0.0595703125
1204,-2.50244140625,0.42724609375,0.30517578125,0.111328125,-1.0224609375,0.06005859375
1205,-2.62451171875,0.48828125,0.48828125,0.10888671875,-1.02294921875,0.0625
1206,-2.74658203125,0.18310546875,0.48828125,0.111328125,-1.02490234375,0.06005859375
1207,-2.8076171875,0.30517578125,0.48828125,0.10888671875,-1.02587890625,0.05517578125
1208,-2.74658203125,0.1220703125,0.3662109375,0.10986328125,-1.029296875,0.0546875
1209,-2.38037109375,0.18310546875,0.30517578125,0.107421875,-1.02685546875,0.0556640625
1210,-2.0751953125,0.54931640625,0.3662109375,0.107421875,-1.02587890625,0.0546875
1211,-1.89208984375,0.6103515625,0.3662109375,0.10693359375,-1.02685546875,0.0546875
1212,-1.64794921875,0.67138671875,0.18310546875,0.1083984375,-1.02783203125,0.05615234375
1213,-1.5869140625,0.79345703125,0.1220703125,0.1044921875,-1.02880859375,0.0546875
1214,-1.46484375,0.8544921875,-0.06103515625,0.1015625,-1.03125,0.05224609375
1215,-1.3427734375,0.79345703125,-0.244140625,0.109375,-1.02734375,0.0576171875
1216,-1.3427734375,0.8544921875,-0.244140625,0.10791015625,-1.0263671875,0.05615234375
1217,-1.15966796875,0.67138671875,-0.244140625,0.1064453125,-1.02734375,0.0546875
1218,-1.15966796875,0.6103515625,-0.244140625,0.107421875,-1.0234375,0.05859375
1219,-1.15966796875,0.42724609375,-0.3662109375,0.1064453125,-1.0283203125,0.05419921875
1220,-0.91552734375,0.244140625,-0.42724609375,0.10595703125,-1.029296875,0.05126953125
1221,-0.732421875,0.30517578125,-0.54931640625,0.10693359375,-1.03369140625,0.05224609375
1222,-0.48828125,0.3662109375,-0.67138671875,0.10693359375,-1.03076171875,0.05029296875
1223,-0.30517578125,0.244140625,-0.8544921875,0.1044921875,-1.025390625,0.05615234375
1224,-0.1220703125,0.06103515625,-0.79345703125,0.107421875,-1.0263671875,0.05078125
1225,-0.06103515625,0.0,-0.8544921875,0.10986328125,-1.02734375,0.05224609375
1226,0.1220703125,0.0,-0.9765625,0.109375,-1.0263671875,0.056640625
1227,0.1220703125,-0.06103515625,-1.03759765625,0.109375,-1.02783203125,0.0546875
1228,0.0,-0.1220703125,-1.0986328125,0.10791015625,-1.02880859375,0.05615234375
1229,0.1220703125,0.0,-1.0986328125,0.10888671875,-1.0283203125,0.05615234375
1230,0.18310546875,0.30517578125,-1.220703125,0.1044921875,-1.02783203125,0.05224609375
1231,0.42724609375,0.244140625,-1.28173828125,0.1064453125,-1.0302734375,0.0517578125
1232,0.54931640625,0.3662109375,-1.28173828125,0.1083984375,-1.02783203125,0.0517578125
1233,0.79345703125,0.42724609375,-1.28173828125,0.10986328125,-1.0224609375,0.05615234375
1234,0.8544921875,0.1220703125,-1.220703125,0.1123046875,-1.0234375,0.0576171875
1235,0.732421875,0.1220703125,-0.9765625,0.1083984375,-1.02294921875,0.056640625
1236,0.67138671875,-0.06103515625,-0.9765625,0.10693359375,-1.02294921875,0.05712890625
1237,0.6103515625,-0.06103515625,-1.15966796875,0.107421875,-1.02685546875,0.0556640625
1238,0.48828125,0.30517578125,-1.3427734375,0.10791015625,-1.03173828125,0.0537109375
1239,0.42724609375,0.8544921875,-1.5869140625,0.10693359375,-1.025390625,0.06494140625
1240,0.1220703125,1.220703125,-1.77001953125,0.10693359375,-1.029296875,0.060546875
1241,-0.1220703125,1.3427734375,-1.89208984375,0.10693359375,-1.02685546875,0.0556640625
1242,0.0,1.28173828125,-1.953125,0.10888671875,-1.02587890625,0.05517578125
1243,0.0,1.15966796875,-1.953125,0.109375,-1.01806640625,0.06201171875
1244,-0.42724609375,0.8544921875,-1.708984375,0.10693359375,-1.01708984375,0.07373046875
1245,-1.46484375,0.732421875,-1.52587890625,0.1123046875,-1.015625,0.08642578125
1246,-2.44140625,1.28173828125,-1.3427734375,0.1142578125,-1.02099609375,0.0654296875
1247,-3.0517578125,2.44140625,-1.15966796875,0.10888671875,-1.0244140625,0.06396484375
1248,-2.99072265625,2.5634765625,-1.0986328125,0.111328125,-1.02587890625,0.05126953125
1249,-2.99072265625,2.0751953125,-1.03759765625,0.11328125,-1.0263671875,0.0478515625
1250,-2.74658203125,2.0751953125,-0.9765625,0.111328125,-1.01904296875,0.056640625
1251,-2.86865234375,1.89208984375,-0.732421875,0.115234375,-1.017578125,0.0556640625
1252,-2.685546875,1.8310546875,-0.48828125,0.11376953125,-1.02294921875,0.04736328125
1253,-2.25830078125,2.197265625,-0.30517578125,0.11279296875,-1.02490234375,0.0458984375
1254,-1.77001953125,2.685546875,-0.30517578125,0.10986328125,-1.02685546875,0.0439453125
1255,-1.5869140625,2.5634765625,-0.3662109375,0.11181640625,-1.0263671875,0.052734375
1256,-1.52587890625,2.3193359375,-0.3662109375,0.11083984375,-1.025390625,0.0556640625
1257,-1.3427734375,2.3193359375,-0.42724609375,0.10498046875,-1.03369140625,0.04736328125
1258,-0.9765625,2.50244140625,-0.67138671875,0.10888671875,-1.03125,0.0537109375
1259,-0.732421875,2.5634765625,-0.91552734375,0.10791015625,-1.033203125,0.05029296875
1260,-0.6103515625,2.685546875,-1.03759765625,0.109375,-1.03466796875,0.0498046875
1261,-0.244140625,2.9296875,-1.3427734375,0.10595703125,-1.0341796875,0.0439453125
1262,0.18310546875,2.9296875,-1.64794921875,0.10595703125,-1.03466796875,0.0478515625
1263,0.42724609375,2.86865234375,-1.8310546875,0.103515625,-1.03125,0.05517578125
1264,0.6103515625,2.197265625,-2.0751953125,0.10693359375,-1.0361328125,0.044921875
1265,1.15966796875,2.0751953125,-2.38037109375,0.10986328125,-1.03857421875,0.03955078125
1266,1.8310546875,2.38037109375,-2.50244140625,0.1083984375,-1.03369140625,0.04736328125
1267,2.5634765625,2.25830078125,-2.685546875,0.11181640625,-1.0322265625,0.04638671875
1268,3.2958984375,1.953125,-2.86865234375,0.11328125,-1.03662109375,0.0380859375
1269,4.45556640625,2.62451171875,-3.0517578125,0.11279296875,-1.03271484375,0.0439453125
1270,5.06591796875,3.11279296875,-3.35693359375,0.11083984375,-1.03125,0.0556640625
1271,5.126953125,3.2958984375,-3.72314453125,0.10791015625,-1.0361328125,0.05517578125
1272,5.18798828125,2.8076171875,-4.21142578125,0.10595703125,-1.04248046875,0.0576171875
1273,5.43212890625,2.74658203125,-4.69970703125,0.1083984375,-1.04443359375,0.05322265625
1274,5.92041015625,2.62451171875,-5.4931640625,0.10546875,-1.0400390625,0.06005859375
1275,5.859375,1.52587890625,-6.16455078125,0.109375,-1.03662109375,0.07080078125
1276,5.67626953125,0.3662109375,-6.8359375,0.1083984375,-1.03857421875,0.07080078125
1277,5.0048828125,-0.79345703125,-7.62939453125,0.107421875,-1.0380859375,0.064453125
1278,4.57763671875,-0.9765625,-8.72802734375,0.11328125,-1.0634765625,0.05859375
1279,6.4697265625,0.244140625,-10.009765625,0.11181640625,-1.04541015625,0.06298828125
1280,6.53076171875,-0.18310546875,-10.8642578125,0.11328125,-1.0380859375,0.0703125
1281,6.28662109375,-0.9765625,-11.53564453125,0.119140625,-1.03955078125,0.060546875
1282,6.103515625,-1.52587890625,-12.14599609375,0.12109375,-1.05517578125,0.06298828125
1283,7.32421875,-1.5869140625,-13.0615234375,0.12060546875,-1.04736328125,0.05908203125
1284,7.75146484375,-1.89208984375,-13.36669921875,0.1259765625,-1.05029296875,0.06103515625
1285,8.60595703125,-1.953125,-13.97705078125,0.1240234375,-1.05078125,0.06201171875
1286,8.97216796875,-2.50244140625,-14.6484375,0.1279296875,-1.048828125,0.06103515625
1287,9.8876953125,-2.5634765625,-15.19775390625,0.13134765625,-1.0537109375,0.06591796875
1288,10.80322265625,-1.89208984375,-15.7470703125,0.130859375,-1.04443359375,0.06884765625
1289,10.7421875,-2.0751953125,-16.2353515625,0.1298828125,-1.05419921875,0.0625
1290,11.90185546875,-2.62451171875,-17.02880859375,0.126953125,-1.0693359375,0.05078125
1291,14.16015625,-3.5400390625,-18.310546875,0.1298828125,-1.0810546875,0.04541015625
1292,16.66259765625,-3.11279296875,-20.1416015625,0.1259765625,-1.0888671875,0.0390625
1293,18.798828125,-2.99072265625,-22.39990234375,0.1171875,-1.11083984375,0.04541015625
1294,20.93505859375,-3.0517578125,-24.658203125,0.11328125,-1.13232421875,0.04248046875
1295,24.2919921875,-2.9296875,-28.3203125,0.1064453125,-1.171875,0.015625
1296,28.25927734375,-2.13623046875,-32.958984375,0.09814453125,-1.20556640625,0.00634765625
1297,32.2265625,-0.6103515625,-38.51318359375,0.09423828125,-1.2314453125,0.01318359375
1298,36.43798828125,-0.42724609375,-45.0439453125,0.08349609375,-1.2666015625,-0.0126953125
1299,40.6494140625,-1.28173828125,-52.42919921875,0.087890625,-1.27978515625,0.013671875
1300,43.02978515625,-1.15966796875,-60.302734375,0.08447265625,-1.27392578125,0.046875
1301,44.37255859375,-6.4697265625,-68.29833984375,0.07470703125,-1.31640625,0.0302734375
1302,46.9970703125,-14.70947265625,-76.96533203125,0.10595703125,-1.27783203125,0.05419921875
1303,44.5556640625,-20.6298828125,-84.9609375,0.138671875,-1.24853515625,0.02685546875
1304,41.80908203125,-23.01025390625,-89.90478515625,0.1484375,-1.248046875,0.017578125
1305,39.6728515625,-22.03369140625,-94.6044921875,0.21728515625,-1.17724609375,0.02001953125
1306,35.33935546875,-16.17431640625,-97.10693359375,0.23291015625,-1.06689453125,0.01953125
1307,25.5126953125,-14.6484375,-96.25244140625,0.2509765625,-1.0859375,-0.044921875
1308,20.08056640625,-14.58740234375,-92.529296875,0.294921875,-1.15478515625,-0.1806640625
1309,24.90234375,0.9765625,-80.322265625,0.02685546875,-0.99609375,-0.224609375
1310,20.6298828125,12.75634765625,-52.490234375,-0.4521484375,-1.05322265625,-0.19140625
1311,25.81787109375,-0.18310546875,-27.4658203125,-0.59716796875,-0.84912109375,-0.14453125
1312,19.775390625,-12.39013671875,-2.3193359375,-0.58447265625,-0.5947265625,-0.13232421875
1313,-1.0986328125,-19.83642578125,24.5361328125,-0.783203125,-0.734375,-0.21240234375
1314,-8.11767578125,-25.57373046875,35.5224609375,-0.796875,-0.685546875,-0.19580078125
1315,-18.06640625,-30.82275390625,46.81396484375,-0.6728515625,-0.61181640625,-0.11865234375
1316,-29.60205078125,-30.029296875,61.4013671875,-0.62548828125,-0.65869140625,-0.10791015625
1317,-36.7431640625,-30.1513671875,77.7587890625,-0.60302734375,-0.7685546875,-0.0869140625
1318,-38.818359375,-30.94482421875,93.994140625,-0.541015625,-0.826171875,-0.02978515625
1319,-40.0390625,-30.517578125,109.130859375,-0.4775390625,-0.873046875,0.02490234375
1320,-41.50390625,-29.60205078125,122.4365234375,-0.4033203125,-0.9423828125,0.060546875
1321,-41.93115234375,-28.9306640625,133.60595703125,-0.33056640625,-1.02587890625,0.07666015625
1322,-41.015625,-28.86962890625,142.63916015625,-0.2470703125,-1.09228515625,0.1025390625
1323,-39.6728515625,-29.052734375,149.59716796875,-0.16552734375,-1.14306640625,0.10986328125
1324,-38.9404296875,-29.296875,155.029296875,-0.09814453125,-1.19287109375,0.10693359375
1325,-38.63525390625,-29.96826171875,157.5927734375,-0.052734375,-1.22216796875,0.10595703125
1326,-38.39111328125,-31.1279296875,158.935546875,-0.00634765625,-1.248046875,0.10546875
1327,-39.36767578125,-33.0810546875,158.447265625,0.02783203125,-1.2685546875,0.1279296875
1328,-40.10009765625,-36.865234375,156.55517578125,0.052734375,-1.2890625,0.142578125
1329,-39.61181640625,-42.8466796875,153.6865234375,0.078125,-1.29052734375,0.15625
1330,-38.51318359375,-49.86572265625,150.32958984375,0.10986328125,-1.28125,0.15869140625
1331,-37.4755859375,-56.33544921875,146.05712890625,0.15625,-1.25927734375,0.15771484375
1332,-37.04833984375,-61.09619140625,140.44189453125,0.21240234375,-1.2333984375,0.154296875
1333,-36.62109375,-62.92724609375,134.033203125,0.27099609375,-1.20703125,0.1640625
1334,-35.82763671875,-61.82861328125,127.13623046875,0.3232421875,-1.1826171875,0.17333984375
1335,-34.48486328125,-59.4482421875,121.39892578125,0.35693359375,-1.16552734375,0.17529296875
1336,-32.3486328125,-54.5654296875,112.79296875,0.42724609375,-1.14404296875,0.181640625
1337,-30.029296875,-47.91259765625,104.1259765625,0.5166015625,-1.1279296875,0.18017578125
1338,-26.7333984375,-38.87939453125,95.8251953125,0.5703125,-1.11279296875,0.1689453125
1339,-22.88818359375,-29.1748046875,85.8154296875,0.6201171875,-1.0830078125,0.17724609375
1340,-19.6533203125,-19.6533203125,73.8525390625,0.6796875,-1.0625,0.18212890625
1341,-16.4794921875,-10.80322265625,61.21826171875,0.72900390625,-1.05419921875,0.18212890625
1342,-12.26806640625,-5.0048828125,48.40087890625,0.75048828125,-1.04248046875,0.18798828125
1343,-8.23974609375,-2.3193359375,34.48486328125,0.7607421875,-1.01904296875,0.20458984375
1344,-5.31005859375,-3.72314453125,19.95849609375,0.767578125,-1.04443359375,0.17822265625
1345,-2.13623046875,-7.62939453125,8.85009765625,0.763671875,-1.05322265625,0.14892578125
1346,2.38037109375,-14.892578125,-6.28662109375,0.7529296875,-1.0263671875,0.13134765625
1347,4.5166015625,-24.0478515625,-21.3623046875,0.701171875,-1.0185546875,0.09326171875
1348,-9.765625,-53.22265625,-56.0302734375,0.6796875,-1.615234375,0.56689453125
1349,32.958984375,-34.85107421875,-111.6943359375,0.68017578125,-0.49462890625,-0.525390625
1350,-13.916015625,14.16015625,-100.5859375,-0.1708984375,-1.52783203125,-0.212890625
1351,40.4052734375,19.8974609375,-91.73583984375,-0.93408203125,-1.22900390625,0.06005859375
1352,35.7666015625,-31.67724609375,-93.93310546875,-0.86083984375,-0.8271484375,-0.47412109375
1353,-6.77490234375,-59.2041015625,-103.271484375,-0.2119140625,-1.29931640625,-0.16845703125
1354,6.34765625,-45.22705078125,-106.99462890625,0.1142578125,-1.11328125,0.25634765625
1355,-2.99072265625,-42.90771484375,-98.876953125,0.32861328125,-1.21240234375,0.32080078125
1356,0.67138671875,-31.3720703125,-91.85791015625,0.2734375,-1.14697265625,0.2998046875
1357,1.3427734375,-13.12255859375,-85.44921875,0.0576171875,-0.9892578125,0.30859375
1358,-5.0048828125,0.0,-87.0361328125,-0.11279296875,-0.8564453125,0.21728515625
1359,-14.6484375,3.96728515625,-92.95654296875,-0.20166015625,-0.8544921875,0.09375
1360,-19.1650390625,3.173828125,-102.4169921875,-0.19873046875,-0.93115234375,-0.0341796875
1361,-21.8505859375,2.197265625,-113.95263671875,-0.09228515625,-1.03173828125,-0.06298828125
1362,-23.74267578125,-12.6953125,-117.00439453125,0.06787109375,-1.310546875,-0.35791015625
1363,-15.93017578125,-49.86572265625,-96.86279296875,0.35791015625,-1.39892578125,-0.44677734375
1364,-7.38525390625,-75.37841796875,-60.36376953125,0.59228515625,-1.24560546875,-0.31201171875
1365,3.96728515625,-55.96923828125,-42.41943359375,0.51123046875,-1.02197265625,0.39111328125
1366,12.6953125,-19.287109375,-39.12353515625,0.2392578125,-1.0244140625,0.15234375
1367,11.1083984375,-11.23046875,-31.67724609375,0.1455078125,-1.08935546875,-0.16845703125
1368,9.58251953125,-18.5546875,-26.4892578125,0.17041015625,-1.0224609375,0.1826171875
1369,4.638671875,-6.89697265625,-23.92578125,0.16552734375,-0.99755859375,0.2255859375
1370,-1.03759765625,-6.28662109375,-20.6298828125,0.14794921875,-1.03759765625,0.095703125
1371,-3.47900390625,-8.1787109375,-18.61572265625,0.1474609375,-1.02587890625,0.1005859375
1372,-5.4931640625,-2.86865234375,-16.845703125,0.16357421875,-1.03466796875,0.0087890625
1373,-4.08935546875,1.03759765625,-15.19775390625,0.09375,-1.04736328125,-0.05517578125
1374,-2.0751953125,0.1220703125,-14.58740234375,0.13623046875,-1.0537109375,-0.03564453125
1375,1.52587890625,4.57763671875,-12.26806640625,0.19873046875,-1.04248046875,0.0107421875
1376,4.39453125,9.1552734375,-11.1083984375,0.1689453125,-1.025390625,0.0498046875
1377,3.5400390625,12.26806640625,-9.1552734375,0.1357421875,-1.01611328125,0.08544921875
1378,0.0,14.34326171875,-7.75146484375,0.11669921875,-1.029296875,0.0869140625
1379,-4.57763671875,14.46533203125,-7.568359375,0.1259765625,-1.0078125,0.09912109375
1380,-9.46044921875,15.07568359375,-6.89697265625,0.11279296875,-1.02099609375,0.06494140625
1381,-12.51220703125,13.73291015625,-6.103515625,0.1123046875,-1.03125,0.04541015625
1382,-13.00048828125,11.41357421875,-5.2490234375,0.115234375,-1.037109375,0.01220703125
1383,-12.5732421875,10.80322265625,-4.5166015625,0.1396484375,-1.021484375,0.0107421875
1384,-12.451171875,14.6484375,-3.173828125,0.1318359375,-1.0419921875,-0.017578125
1385,-11.1083984375,19.04296875,-2.50244140625,0.1181640625,-1.04638671875,-0.033203125
1386,-10.31494140625,21.66748046875,-2.50244140625,0.119140625,-1.03076171875,0.0009765625
1387,-9.94873046875,22.03369140625,-2.5634765625,0.12548828125,-1.02001953125,0.0283203125
1388,-9.94873046875,21.3623046875,-2.44140625,0.12646484375,-1.01953125,0.0341796875
1389,-9.94873046875,20.5078125,-2.86865234375,0.1181640625,-1.0283203125,0.02001953125
1390,-9.94873046875,20.99609375,-3.47900390625,0.1201171875,-1.03564453125,0.01806640625
1391,-9.6435546875,22.52197265625,-4.5166015625,0.11767578125,-1.03662109375,0.01708984375
1392,-9.6435546875,23.49853515625,-5.4931640625,0.12255859375,-1.0263671875,0.02734375
1393,-9.46044921875,24.7802734375,-6.4697265625,0.11376953125,-1.0390625,0.005859375
1394,-8.60595703125,25.634765625,-7.99560546875,0.107421875,-1.04443359375,-0.013671875
1395,-7.87353515625,25.93994140625,-9.33837890625,0.11181640625,-1.0400390625,-0.0087890625
1396,-6.16455078125,25.45166015625,-10.6201171875,0.11865234375,-1.03955078125,-0.01123046875
1397,-5.06591796875,25.146484375,-11.41357421875,0.126953125,-1.03759765625,-0.001953125
1398,-3.2958984375,25.20751953125,-12.6953125,0.11083984375,-1.0537109375,-0.0126953125
1399,-1.28173828125,24.658203125,-14.5263671875,0.1005859375,-1.06298828125,-0.03125
1400,-0.42724609375,24.169921875,-17.08984375,0.1103515625,-1.05810546875,-0.01318359375
1401,-0.6103515625,24.658203125,-19.59228515625,0.1064453125,-1.05517578125,0.02001953125
1402,-0.54931640625,23.74267578125,-22.216796875,0.10205078125,-1.06591796875,0.0439453125
1403,-0.48828125,21.78955078125,-25.390625,0.10693359375,-1.07470703125,0.056640625
1404,-0.48828125,20.20263671875,-29.11376953125,0.08837890625,-1.08642578125,0.04248046875
1405,-1.52587890625,18.6767578125,-33.5693359375,0.09765625,-1.1005859375,0.02734375
1406,-1.89208984375,19.04296875,-38.330078125,0.1142578125,-1.10205078125,0.03369140625
1407,-1.46484375,19.34814453125,-41.8701171875,0.0986328125,-1.10009765625,0.03564453125
1408,-1.52587890625,17.2119140625,-46.875,0.10693359375,-1.1123046875,-0.00244140625
1409,-1.708984375,16.6015625,-52.55126953125,0.10546875,-1.15185546875,-0.0400390625
1410,0.30517578125,16.54052734375,-59.14306640625,0.11669921875,-1.17724609375,-0.033203125
