n_samples,gyr_x,gyr_y,gyr_z,acc_x,acc_y,acc_z
100000,-50.537109375,362.85400390625,-25.81787109375,0.25,-0.33203125,2.44287109375
100001,-55.84716796875,352.783203125,-36.0107421875,0.24951171875,-0.2705078125,2.5166015625
100002,-60.302734375,341.552734375,-44.921875,0.306640625,-0.2099609375,2.68115234375
100003,-58.41064453125,330.01708984375,-52.24609375,0.32177734375,-0.140625,2.85791015625
100004,-55.11474609375,322.08251953125,-58.7158203125,0.29638671875,-0.07958984375,2.98193359375
100005,-51.08642578125,321.2890625,-63.5986328125,0.25927734375,-0.046875,3.05908203125
100006,-45.95947265625,329.16259765625,-67.32177734375,0.2080078125,-0.0322265625,3.11474609375
100007,-41.56494140625,342.71240234375,-69.03076171875,0.19873046875,-0.0224609375,3.173828125
100008,-38.0859375,359.2529296875,-69.2138671875,0.26171875,-0.02099609375,3.23779296875
100009,-37.109375,373.47412109375,-66.7724609375,0.3740234375,-0.0263671875,3.31005859375
100010,-39.00146484375,385.25390625,-60.60791015625,0.51611328125,-0.0556640625,3.35400390625
100011,-42.8466796875,391.845703125,-53.77197265625,0.72998046875,-0.11279296875,3.38916015625
100012,-46.93603515625,394.71435546875,-44.189453125,0.97119140625,-0.1845703125,3.40283203125
100013,-50.4150390625,393.49365234375,-33.935546875,1.203125,-0.2734375,3.369140625
100014,-55.72509765625,390.31982421875,-22.64404296875,1.47705078125,-0.38134765625,3.2568359375
100015,-66.162109375,387.451171875,-12.51220703125,1.72119140625,-0.48779296875,3.09765625
100016,-81.54296875,382.75146484375,-1.5869140625,1.96630859375,-0.54931640625,2.88720703125
100017,-106.99462890625,375.8544921875,9.3994140625,2.138671875,-0.49755859375,2.693359375
100018,-158.99658203125,363.525390625,21.6064453125,2.14453125,-0.30615234375,2.64208984375
100019,-204.89501953125,351.25732421875,34.66796875,2.39892578125,0.095703125,2.53271484375
100020,-227.294921875,335.14404296875,51.025390625,2.6376953125,0.55078125,2.4521484375
100021,-219.90966796875,317.7490234375,70.556640625,2.9501953125,1.06396484375,2.30712890625
100022,-183.837890625,299.1943359375,89.111328125,3.22412109375,1.3828125,2.1806640625
100023,-121.15478515625,276.79443359375,105.04150390625,3.50927734375,1.486328125,2.01806640625
100024,-57.373046875,252.62451171875,113.22021484375,3.77001953125,1.361328125,1.84130859375
100025,-3.84521484375,225.40283203125,113.8916015625,4.1376953125,0.99169921875,1.61767578125
100026,22.76611328125,198.42529296875,104.30908203125,4.62646484375,0.47607421875,1.45361328125
100027,22.216796875,163.6962890625,82.58056640625,5.0947265625,-0.07421875,1.40087890625
100028,-2.197265625,124.755859375,52.24609375,5.3466796875,-0.4248046875,1.44970703125
100029,-37.41455078125,76.84326171875,15.68603515625,5.35595703125,-0.48486328125,1.484375
100030,-59.38720703125,28.99169921875,-15.44189453125,5.1005859375,-0.18359375,1.439453125
100031,-60.6689453125,-19.95849609375,-40.0390625,4.658203125,0.27685546875,1.416015625
100032,-42.8466796875,-59.99755859375,-54.62646484375,4.20068359375,0.67529296875,1.43505859375
100033,-8.85009765625,-91.6748046875,-62.19482421875,3.68701171875,0.99365234375,1.474609375
100034,27.52685546875,-112.060546875,-62.43896484375,3.240234375,1.0888671875,1.533203125
100035,62.92724609375,-125.18310546875,-58.9599609375,2.90283203125,1.01123046875,1.638671875
100036,86.42578125,-132.38525390625,-54.443359375,2.67333984375,0.8271484375,1.75927734375
100037,323.1201171875,-317.07763671875,12.939453125,1.40380859375,3.81103515625,11.50732421875
100038,321.10595703125,-215.63720703125,11.04736328125,-1.3681640625,-0.0595703125,-1.14794921875
100039,322.93701171875,-255.37109375,-5.4931640625,-2.5634765625,-0.73095703125,-0.65234375
100040,377.25830078125,-306.70166015625,6.28662109375,-0.91748046875,-0.1435546875,2.58349609375
100041,291.68701171875,-344.482421875,40.283203125,-0.765625,0.03759765625,1.15185546875
100042,204.40673828125,-373.046875,75.01220703125,0.08740234375,-0.33154296875,1.330078125
100043,99.365234375,-385.1318359375,103.21044921875,0.16162109375,0.1689453125,1.5498046875
100044,8.30078125,-372.25341796875,117.3095703125,0.4599609375,0.431640625,1.64892578125
100045,-23.0712890625,-362.060546875,119.2626953125,0.1884765625,0.24658203125,1.66845703125
100046,-33.50830078125,-350.03662109375,113.1591796875,-0.43115234375,0.54248046875,2.564453125
100047,-26.0009765625,-338.623046875,93.017578125,-0.12646484375,0.6435546875,2.01220703125
100048,-15.2587890625,-326.35498046875,63.29345703125,0.07666015625,0.6044921875,1.94921875
100049,-16.6015625,-315.24658203125,39.0625,0.18359375,0.47705078125,1.96728515625
100050,-25.390625,-315.97900390625,21.484375,0.0947265625,0.306640625,1.791015625
100051,-34.24072265625,-311.6455078125,11.16943359375,0.009765625,0.17626953125,1.4990234375
100052,-36.7431640625,-295.654296875,7.01904296875,0.068359375,0.048828125,1.34326171875
100053,-34.24072265625,-267.27294921875,7.6904296875,0.16796875,-0.0087890625,1.40185546875
100054,-26.18408203125,-221.3134765625,7.87353515625,0.20849609375,-0.052734375,1.47119140625
100055,-19.83642578125,-169.49462890625,8.11767578125,0.177734375,-0.04052734375,1.42529296875
100056,-15.68603515625,-123.1689453125,8.60595703125,0.12158203125,-0.037109375,1.30712890625
100057,-12.14599609375,-89.111328125,8.30078125,0.13134765625,-0.00927734375,1.2158203125
100058,-8.1787109375,-63.53759765625,7.01904296875,0.12646484375,0.01708984375,1.14501953125
100059,-6.04248046875,-48.15673828125,4.69970703125,0.0986328125,0.01416015625,1.09716796875
100060,-4.69970703125,-38.330078125,2.99072265625,0.0673828125,0.01513671875,1.06396484375
100061,-4.45556640625,-33.14208984375,1.77001953125,0.05908203125,0.0234375,1.04736328125
100062,-3.662109375,-28.076171875,0.79345703125,0.05908203125,0.01611328125,1.0419921875
100063,-2.74658203125,-24.7802734375,1.15966796875,0.06396484375,0.001953125,1.04345703125
100064,-2.0751953125,-20.751953125,1.40380859375,0.06787109375,0.0205078125,1.0400390625
100065,-2.44140625,-17.578125,1.89208984375,0.06591796875,0.021484375,1.03564453125
100066,-2.5634765625,-14.46533203125,2.0751953125,0.060546875,0.021484375,1.02783203125
100067,-2.38037109375,-12.51220703125,1.15966796875,0.07421875,0.01806640625,1.0341796875
100068,0.54931640625,-5.79833984375,0.06103515625,0.09130859375,-0.09033203125,1.03125
100069,1.15966796875,-0.48828125,1.46484375,0.0732421875,0.029296875,1.033203125
100070,-1.3427734375,-0.18310546875,2.3193359375,0.0341796875,0.0439453125,1.02783203125
100071,-1.3427734375,-2.3193359375,1.3427734375,0.00048828125,-0.00390625,1.01416015625
100072,0.79345703125,-3.2958984375,0.244140625,0.03564453125,0.0009765625,1.0302734375
100073,0.54931640625,-2.5634765625,0.8544921875,0.0546875,0.02197265625,1.02294921875
100074,0.0,-1.3427734375,1.77001953125,0.0458984375,0.01123046875,1.01953125
100075,-0.244140625,-1.28173828125,1.77001953125,0.0390625,0.01513671875,1.02197265625
100076,-0.244140625,-1.953125,1.46484375,0.033203125,0.013671875,1.03125
100077,0.06103515625,-2.62451171875,1.5869140625,0.04150390625,0.01171875,1.021484375
100078,0.06103515625,-3.0517578125,1.77001953125,0.03857421875,0.01171875,1.0302734375
100079,0.48828125,-3.5400390625,2.01416015625,0.03271484375,0.005859375,1.02490234375
100080,1.03759765625,-3.7841796875,1.64794921875,0.033203125,0.01513671875,1.017578125
100081,1.28173828125,-4.39453125,1.5869140625,0.044921875,0.0078125,1.02392578125
100082,1.46484375,-4.21142578125,1.46484375,0.04052734375,0.017578125,1.02392578125
100083,1.64794921875,-4.39453125,1.52587890625,0.04150390625,0.01220703125,1.02734375
100084,1.953125,-4.150390625,1.52587890625,0.03955078125,0.01416015625,1.02587890625
100085,1.953125,-4.39453125,1.3427734375,0.03955078125,0.0166015625,1.0263671875
100086,1.77001953125,-4.57763671875,1.52587890625,0.03515625,0.01416015625,1.0244140625
100087,2.25830078125,-4.5166015625,1.40380859375,0.04248046875,0.01123046875,1.02392578125
100088,2.5634765625,-5.0048828125,1.03759765625,0.03662109375,0.0126953125,1.0244140625
100089,2.5634765625,-4.45556640625,0.8544921875,0.03857421875,0.0146484375,1.02197265625
100090,2.44140625,-4.08935546875,1.0986328125,0.04150390625,0.017578125,1.0205078125
100091,2.3193359375,-3.7841796875,1.0986328125,0.0419921875,0.0185546875,1.02294921875
100092,2.44140625,-3.72314453125,1.03759765625,0.04443359375,0.01513671875,1.02197265625
100093,2.74658203125,-3.0517578125,0.8544921875,0.05078125,0.01806640625,1.025390625
100094,2.38037109375,-2.685546875,0.42724609375,0.0400390625,0.01806640625,1.025390625
100095,2.44140625,-2.0751953125,0.1220703125,0.0458984375,0.013671875,1.017578125
100096,2.25830078125,-1.953125,0.3662109375,0.046875,0.01513671875,1.01708984375
100097,2.3193359375,-1.708984375,0.1220703125,0.04248046875,0.01806640625,1.013671875
100098,2.197265625,-1.52587890625,-0.30517578125,0.0400390625,0.01611328125,1.02783203125
100099,2.01416015625,-1.40380859375,-0.244140625,0.04150390625,0.02099609375,1.03076171875
100100,1.40380859375,-1.3427734375,-0.30517578125,0.03662109375,0.02001953125,1.02783203125
100101,1.46484375,-1.220703125,-0.18310546875,0.04248046875,0.017578125,1.01953125
100102,1.220703125,-1.40380859375,-0.244140625,0.0439453125,0.013671875,1.015625
100103,1.28173828125,-1.03759765625,-0.54931640625,0.0400390625,0.015625,1.01904296875
100104,1.708984375,-0.91552734375,-0.48828125,0.0419921875,0.01806640625,1.0185546875
100105,1.40380859375,-1.46484375,-0.732421875,0.0458984375,0.0185546875,1.01904296875
100106,1.40380859375,-1.03759765625,-0.732421875,0.04833984375,0.02294921875,1.01708984375
100107,1.5869140625,-1.46484375,-0.18310546875,0.03564453125,0.02197265625,1.01708984375
100108,1.52587890625,-1.46484375,-0.67138671875,0.0458984375,0.01953125,1.02099609375
100109,1.46484375,-1.220703125,-0.732421875,0.04150390625,0.021484375,1.02587890625
100110,1.708984375,-1.40380859375,-0.6103515625,0.044921875,0.021484375,1.015625
100111,1.28173828125,-1.708984375,-0.67138671875,0.044921875,0.02197265625,1.01904296875
100112,1.40380859375,-1.5869140625,-0.9765625,0.04638671875,0.029296875,1.0166015625
100113,1.15966796875,-1.89208984375,-0.67138671875,0.0390625,0.0185546875,1.02294921875
100114,0.91552734375,-1.3427734375,-0.6103515625,0.04443359375,0.01904296875,1.01708984375
100115,0.9765625,-1.64794921875,-0.54931640625,0.04248046875,0.02099609375,1.01806640625
100116,1.220703125,-2.13623046875,-0.732421875,0.0439453125,0.02197265625,1.0244140625
100117,1.28173828125,-2.3193359375,-0.91552734375,0.044921875,0.01806640625,1.01953125
100118,0.91552734375,-2.62451171875,-0.67138671875,0.04052734375,0.0263671875,1.02392578125
100119,1.0986328125,-2.9296875,-0.54931640625,0.0439453125,0.0244140625,1.025390625
100120,1.15966796875,-3.41796875,-0.244140625,0.0478515625,0.02099609375,1.02490234375
100121,1.15966796875,-3.173828125,-0.3662109375,0.04736328125,0.01953125,1.013671875
100122,1.28173828125,-3.41796875,-0.18310546875,0.0478515625,0.02392578125,1.0234375
100123,0.8544921875,-3.173828125,-0.30517578125,0.0419921875,0.01318359375,1.01953125
100124,0.9765625,-3.72314453125,-0.244140625,0.04150390625,0.009765625,1.0224609375
100125,0.8544921875,-4.08935546875,0.06103515625,0.0439453125,0.0234375,1.0126953125
100126,0.67138671875,-4.0283203125,0.54931640625,0.04248046875,0.02490234375,1.0205078125
100127,0.54931640625,-4.82177734375,0.67138671875,0.0419921875,0.0234375,1.02392578125
100128,-0.54931640625,-5.615234375,0.732421875,0.0439453125,0.0361328125,1.03076171875
100129,-0.6103515625,-6.7138671875,0.9765625,0.0400390625,0.0244140625,1.03369140625
100130,-1.28173828125,-8.23974609375,1.0986328125,0.04345703125,0.02587890625,1.0302734375
100131,-1.89208984375,-8.9111328125,1.64794921875,0.04248046875,0.02783203125,1.0341796875
100132,-3.0517578125,-10.7421875,1.52587890625,0.0458984375,0.02880859375,1.046875
100133,-4.7607421875,-12.63427734375,1.3427734375,0.02783203125,0.03173828125,1.04833984375
100134,-8.48388671875,-13.97705078125,1.52587890625,0.046875,0.02685546875,1.0673828125
100135,-13.61083984375,-18.1884765625,2.9296875,0.052734375,0.0283203125,1.07666015625
100136,-19.47021484375,-21.78955078125,3.96728515625,0.05224609375,0.04296875,1.1171875
100137,-28.13720703125,-24.7802734375,3.11279296875,0.03271484375,0.01171875,1.125
100138,-32.28759765625,-29.4189453125,2.50244140625,0.0634765625,0.0087890625,1.140625
100139,-36.43798828125,-35.46142578125,2.197265625,0.06689453125,0.0205078125,1.16650390625
100140,-44.12841796875,-38.87939453125,0.9765625,0.0654296875,-0.0048828125,1.23388671875
100141,-52.6123046875,-42.90771484375,-0.244140625,0.05078125,-0.07861328125,1.27294921875
100142,-65.24658203125,-50.35400390625,-3.72314453125,-0.0107421875,-0.2314453125,1.43994140625
100143,-59.38720703125,-58.59375,-3.96728515625,0.1357421875,0.1982421875,1.64501953125
100144,-21.17919921875,-87.158203125,7.26318359375,0.10498046875,0.2275390625,1.6552734375
100145,-29.72412109375,-92.34619140625,2.197265625,0.06494140625,-0.22607421875,1.4765625
100146,-30.94482421875,-95.703125,1.52587890625,0.10009765625,0.14892578125,1.4052734375
100147,-26.55029296875,-103.759765625,4.69970703125,0.08837890625,0.11572265625,1.50439453125
100148,-29.1748046875,-110.4736328125,5.37109375,0.0830078125,-0.02294921875,1.49169921875
100149,-31.25,-116.943359375,5.43212890625,0.0810546875,0.07080078125,1.54052734375
100150,-29.6630859375,-124.8779296875,7.2021484375,0.087890625,0.09716796875,1.56201171875
100151,-29.35791015625,-132.99560546875,8.4228515625,0.07666015625,0.00634765625,1.56103515625
100152,-30.8837890625,-141.4794921875,7.8125,0.1015625,-0.0185546875,1.5546875
100153,-31.06689453125,-149.59716796875,7.568359375,0.11767578125,0.02001953125,1.54931640625
100154,-30.8837890625,-158.203125,7.6904296875,0.09619140625,-0.00146484375,1.5556640625
100155,-32.5927734375,-166.68701171875,6.8359375,0.08935546875,-0.0517578125,1.55322265625
100156,-34.3017578125,-175.048828125,5.18798828125,0.09765625,-0.0712890625,1.5595703125
100157,-34.7900390625,-184.2041015625,3.84521484375,0.11083984375,-0.0634765625,1.60107421875
100158,-35.33935546875,-194.2138671875,3.41796875,0.0986328125,-0.05078125,1.64501953125
100159,-36.56005859375,-205.01708984375,3.90625,0.08642578125,0.02294921875,1.75537109375
100160,-36.9873046875,-218.6279296875,5.2490234375,0.0869140625,0.08349609375,1.87841796875
100161,-36.4990234375,-233.45947265625,6.2255859375,0.052734375,0.0439453125,1.96533203125
100162,-37.59765625,-250.30517578125,6.04248046875,0.06201171875,-0.0712890625,2.0703125
100163,-38.818359375,-267.9443359375,3.7841796875,0.04736328125,-0.138671875,2.064453125
100164,-35.46142578125,-289.306640625,0.0,0.1064453125,-0.23779296875,2.09326171875
100165,-31.6162109375,-309.02099609375,-4.150390625,0.13623046875,-0.357421875,2.19677734375
100166,-28.1982421875,-329.2236328125,-9.70458984375,0.1064453125,-0.39794921875,2.28271484375
100167,-27.16064453125,-350.830078125,-13.0615234375,0.076171875,-0.3046875,2.4375
100168,-29.84619140625,-369.93408203125,-12.3291015625,0.04296875,-0.08447265625,2.599609375
100169,-29.78515625,-392.15087890625,-6.89697265625,0.23388671875,0.20458984375,2.96240234375
100170,-35.2783203125,-408.75244140625,-0.8544921875,0.26513671875,0.0400390625,3.017578125
100171,-42.96875,-421.875,-0.18310546875,0.28759765625,-0.09375,3.2587890625
100172,-36.4990234375,-435.24169921875,2.197265625,0.18701171875,-0.23828125,3.23095703125
100173,-43.9453125,-442.56591796875,-0.48828125,0.271484375,-0.556640625,3.224609375
100174,-64.5751953125,-453.67431640625,-11.16943359375,0.341796875,-0.6064453125,3.22998046875
100175,-59.814453125,-463.80615234375,-17.51708984375,0.1044921875,0.0458984375,3.0625
100176,-38.39111328125,-460.44921875,-15.9912109375,0.30615234375,0.3564453125,3.33447265625
100177,-18.310546875,-470.15380859375,-9.94873046875,0.0087890625,0.35009765625,3.17529296875
100178,-12.451171875,-480.3466796875,-4.0283203125,0.03369140625,0.37646484375,3.1357421875
100179,-6.04248046875,-474.12109375,2.3193359375,-0.36572265625,0.2197265625,3.32177734375
100180,-12.63427734375,-458.43505859375,3.60107421875,-0.23388671875,0.0927734375,3.5712890625
100181,-10.009765625,-455.4443359375,4.7607421875,-0.70556640625,0.123046875,3.48095703125
100182,-0.732421875,-452.392578125,5.79833984375,-1.18896484375,0.12109375,3.13818359375
100183,6.89697265625,-442.81005859375,6.103515625,-1.89501953125,-0.02734375,2.2177734375
100184,9.94873046875,-431.5185546875,-4.21142578125,-2.10888671875,-0.30322265625,1.787109375
100185,7.14111328125,-423.2177734375,-43.64013671875,-2.4619140625,-0.7216796875,1.1923828125
100186,42.17529296875,-402.4658203125,-80.810546875,-2.28271484375,-1.01513671875,-0.36083984375
100187,73.1201171875,-267.2119140625,-114.501953125,-2.27490234375,-0.65283203125,-0.61767578125
100188,58.10546875,-155.6396484375,-133.48388671875,-2.2880859375,-0.37109375,0.80029296875
100189,39.00146484375,-84.3505859375,-142.333984375,-2.1396484375,-0.4384765625,1.49072265625
100190,28.62548828125,-21.728515625,-148.98681640625,-2.025390625,-0.3017578125,1.34765625
100191,35.94970703125,25.81787109375,-150.87890625,-2.02001953125,0.0341796875,1.08837890625
100192,55.72509765625,61.95068359375,-145.6298828125,-1.86767578125,0.1396484375,0.86083984375
100193,75.62255859375,84.53369140625,-137.451171875,-1.61279296875,0.138671875,0.81982421875
100194,94.1162109375,98.0224609375,-128.96728515625,-1.34423828125,0.109375,0.8740234375
100195,109.0087890625,104.43115234375,-121.337890625,-1.1923828125,0.06689453125,0.8544921875
100196,123.84033203125,107.72705078125,-112.73193359375,-1.13623046875,-0.01318359375,0.748046875
100197,134.09423828125,110.90087890625,-105.224609375,-1.1181640625,-0.09814453125,0.62109375
100198,138.0615234375,116.02783203125,-97.59521484375,-1.09228515625,-0.1904296875,0.51708984375
100199,134.09423828125,122.98583984375,-91.12548828125,-1.05859375,-0.27099609375,0.4638671875
100200,124.1455078125,131.103515625,-83.984375,-1.04150390625,-0.33984375,0.46142578125
100201,110.65673828125,140.19775390625,-76.96533203125,-1.01611328125,-0.396484375,0.4580078125
100202,92.6513671875,150.7568359375,-69.82421875,-0.998046875,-0.42578125,0.46337890625
100203,75.3173828125,161.9873046875,-62.43896484375,-0.97705078125,-0.412109375,0.48046875
100204,58.65478515625,175.29296875,-54.5654296875,-0.958984375,-0.36474609375,0.49365234375
100205,46.32568359375,188.78173828125,-46.630859375,-0.94091796875,-0.3203125,0.52099609375
100206,38.6962890625,202.94189453125,-37.04833984375,-0.91259765625,-0.26123046875,0.55126953125
100207,34.66796875,217.041015625,-27.9541015625,-0.8798828125,-0.2138671875,0.58642578125
100208,34.3017578125,233.0322265625,-18.00537109375,-0.84619140625,-0.18359375,0.6181640625
100209,37.29248046875,248.10791015625,-8.7890625,-0.8212890625,-0.1767578125,0.6572265625
100210,40.58837890625,264.0380859375,0.79345703125,-0.79833984375,-0.1953125,0.70849609375
100211,42.6025390625,278.6865234375,8.85009765625,-0.78076171875,-0.24365234375,0.75927734375
100212,42.724609375,294.49462890625,16.78466796875,-0.755859375,-0.3046875,0.8046875
100213,39.73388671875,309.14306640625,23.62060546875,-0.74560546875,-0.3525390625,0.8505859375
100214,35.15625,323.30322265625,29.4189453125,-0.71826171875,-0.39892578125,0.91064453125
100215,29.296875,337.95166015625,34.48486328125,-0.69189453125,-0.43310546875,0.9755859375
100216,22.94921875,349.12109375,39.306640625,-0.658203125,-0.443359375,1.04248046875
100217,17.822265625,359.9853515625,43.27392578125,-0.62158203125,-0.44873046875,1.1279296875
100218,14.46533203125,368.408203125,46.56982421875,-0.5791015625,-0.43212890625,1.2041015625
100219,10.986328125,375.54931640625,49.4384765625,-0.52880859375,-0.43017578125,1.28369140625
100220,9.58251953125,380.67626953125,50.6591796875,-0.5068359375,-0.443359375,1.35693359375
100221,7.87353515625,385.55908203125,50.78125,-0.48681640625,-0.46875,1.4189453125
100222,4.69970703125,390.13671875,48.64501953125,-0.47412109375,-0.505859375,1.4814453125
100223,-0.8544921875,395.20263671875,44.43359375,-0.44970703125,-0.55126953125,1.52978515625
100224,-8.30078125,399.71923828125,39.36767578125,-0.41748046875,-0.587890625,1.61279296875
100225,-17.27294921875,403.6865234375,33.203125,-0.376953125,-0.61083984375,1.6884765625
100226,-26.42822265625,406.06689453125,26.67236328125,-0.31396484375,-0.61767578125,1.78955078125
100227,-35.64453125,407.04345703125,18.98193359375,-0.22509765625,-0.60205078125,1.892578125
100228,-42.54150390625,404.541015625,11.65771484375,-0.11474609375,-0.59326171875,1.99072265625
100229,-47.30224609375,399.10888671875,3.90625,-0.00244140625,-0.57568359375,2.0888671875
100230,-50.4150390625,391.41845703125,-4.08935546875,0.10205078125,-0.5546875,2.17236328125
100231,-52.79541015625,380.7373046875,-13.3056640625,0.1884765625,-0.5478515625,2.28564453125
100232,-55.35888671875,369.44580078125,-22.15576171875,0.23291015625,-0.54833984375,2.38037109375
100233,-59.9365234375,356.62841796875,-32.53173828125,0.259765625,-0.5361328125,2.46435546875
100234,-64.02587890625,344.17724609375,-42.17529296875,0.2607421875,-0.5166015625,2.5576171875
100235,-67.81005859375,332.58056640625,-51.45263671875,0.25048828125,-0.4677734375,2.67529296875
100236,-69.76318359375,323.42529296875,-59.9365234375,0.21435546875,-0.4033203125,2.779296875
100237,-70.25146484375,320.37353515625,-67.138671875,0.1552734375,-0.3564453125,2.85205078125
100238,-71.6552734375,324.89013671875,-74.70703125,0.1083984375,-0.34423828125,2.9140625
100239,-75.5615234375,334.89990234375,-80.62744140625,0.08447265625,-0.35302734375,2.98095703125
100240,-81.72607421875,349.2431640625,-85.75439453125,0.126953125,-0.3427734375,3.07275390625
100241,-88.92822265625,362.48779296875,-87.34130859375,0.2255859375,-0.28955078125,3.1630859375
100242,-96.13037109375,374.20654296875,-85.87646484375,0.3564453125,-0.23291015625,3.24853515625
100243,-100.830078125,381.40869140625,-81.6650390625,0.49267578125,-0.17626953125,3.32470703125
100244,-101.25732421875,385.3759765625,-73.73046875,0.70556640625,-0.1103515625,3.3955078125
100245,-97.10693359375,386.65771484375,-63.78173828125,0.95703125,-0.0859375,3.4013671875
100246,-90.88134765625,386.90185546875,-51.3916015625,1.22509765625,-0.12255859375,3.32275390625
100247,-87.7685546875,387.14599609375,-39.6728515625,1.45751953125,-0.189453125,3.2216796875
100248,-87.58544921875,385.6201171875,-27.2216796875,1.70263671875,-0.29736328125,3.12841796875
100249,-93.75,381.9580078125,-15.5029296875,1.9228515625,-0.3505859375,2.9150390625
100250,-125.06103515625,372.314453125,0.06103515625,1.95068359375,-0.26220703125,2.833984375
100251,-184.02099609375,362.6708984375,13.85498046875,1.97216796875,-0.0859375,2.80517578125
100252,-230.712890625,350.89111328125,31.31103515625,2.31298828125,0.31396484375,2.7197265625
100253,-246.58203125,337.2802734375,50.78125,2.61083984375,0.7880859375,2.6474609375
100254,-233.7646484375,321.77734375,72.6318359375,2.919921875,1.2060546875,2.470703125
100255,-193.66455078125,303.89404296875,92.6513671875,3.17578125,1.4404296875,2.3642578125
100256,-130.126953125,280.1513671875,110.41259765625,3.427734375,1.46875,2.20703125
100257,-64.88037109375,254.57763671875,120.4833984375,3.66796875,1.24072265625,1.982421875
100258,-8.544921875,224.853515625,121.64306640625,3.9189453125,0.79296875,1.72802734375
100259,20.56884765625,195.73974609375,112.6708984375,4.208984375,0.30517578125,1.556640625
100260,22.39990234375,164.794921875,94.8486328125,4.57568359375,-0.275390625,1.45849609375
100261,-4.33349609375,128.90625,65.97900390625,4.849609375,-0.736328125,1.427734375
100262,-47.2412109375,92.83447265625,34.1796875,4.9345703125,-0.869140625,1.4228515625
100263,-89.66064453125,51.69677734375,2.01416015625,4.828125,-0.65087890625,1.38525390625
100264,-111.02294921875,11.90185546875,-21.484375,4.52685546875,-0.177734375,1.3466796875
100265,-109.06982421875,-27.89306640625,-36.92626953125,4.14404296875,0.34619140625,1.36962890625
100266,-88.19580078125,-60.97412109375,-43.701171875,3.76806640625,0.71435546875,1.380859375
100267,-52.79541015625,-89.05029296875,-43.88427734375,3.35986328125,0.96875,1.43212890625
100268,-13.97705078125,-109.0087890625,-39.9169921875,2.9990234375,1.0146484375,1.486328125
100269,23.37646484375,-123.47412109375,-34.66796875,2.68017578125,0.88037109375,1.54248046875
100270,213.68408203125,-273.0712890625,33.3251953125,3.63818359375,4.7060546875,4.9033203125
100271,369.5068359375,-263.97705078125,83.740234375,2.08984375,1.5791015625,1.55859375
100272,379.82177734375,-299.072265625,66.0400390625,-3.15576171875,-1.10009765625,-0.20703125
100273,380.0048828125,-322.8759765625,67.5048828125,0.12646484375,0.078125,1.33349609375
100274,305.6640625,-333.984375,97.900390625,-1.07470703125,-0.35791015625,2.27978515625
100275,166.6259765625,-352.84423828125,137.51220703125,-0.5966796875,0.07666015625,1.25
100276,62.92724609375,-366.5771484375,162.841796875,-0.2275390625,0.13525390625,1.48291015625
100277,-17.4560546875,-359.80224609375,166.80908203125,0.34814453125,0.66748046875,1.74951171875
100278,-44.677734375,-350.341796875,153.1982421875,0.4619140625,0.76025390625,1.7890625
100279,-52.42919921875,-346.37451171875,134.765625,-0.1806640625,0.71240234375,2.2587890625
100280,-48.095703125,-333.67919921875,111.14501953125,-0.18310546875,0.75244140625,2.00048828125
100281,-43.27392578125,-323.2421875,76.2939453125,0.0380859375,0.69580078125,1.97314453125
100282,-37.17041015625,-312.8662109375,42.90771484375,0.2939453125,0.55419921875,1.9287109375
100283,-37.59765625,-306.82373046875,13.48876953125,0.28759765625,0.39013671875,1.822265625
100284,-41.6259765625,-291.3818359375,-3.11279296875,0.1162109375,0.17919921875,1.47314453125
100285,-40.34423828125,-273.62060546875,-7.38525390625,0.0234375,0.001953125,1.32568359375
100286,-36.9873046875,-248.53515625,-4.39453125,0.06640625,-0.07568359375,1.3271484375
100287,-28.076171875,-215.6982421875,-0.91552734375,0.1533203125,-0.12109375,1.341796875
100288,-18.5546875,-165.95458984375,3.84521484375,0.16162109375,-0.0966796875,1.3505859375
100289,-14.22119140625,-123.6572265625,7.568359375,0.1240234375,-0.0732421875,1.29345703125
100290,-9.8876953125,-89.35546875,9.1552734375,0.1142578125,-0.02734375,1.21435546875
100291,-5.615234375,-65.36865234375,7.9345703125,0.12841796875,0.015625,1.14697265625
100292,-4.39453125,-47.36328125,3.72314453125,0.1015625,0.0234375,1.103515625
100293,-4.08935546875,-36.80419921875,0.48828125,0.07861328125,0.0234375,1.07080078125
100294,-3.0517578125,-30.82275390625,-1.8310546875,0.05810546875,0.00830078125,1.04248046875
100295,-3.41796875,-26.91650390625,-2.0751953125,0.064453125,0.00732421875,1.05322265625
100296,-2.74658203125,-22.8271484375,-0.91552734375,0.06640625,0.00146484375,1.0400390625
100297,-2.74658203125,-19.6533203125,0.67138671875,0.06103515625,0.00537109375,1.03466796875
100298,-2.0751953125,-16.54052734375,0.79345703125,0.056640625,0.005859375,1.03076171875
100299,-1.5869140625,-14.46533203125,0.91552734375,0.05615234375,0.01708984375,1.03759765625
100300,-2.13623046875,-12.39013671875,-0.1220703125,0.06103515625,0.02197265625,1.02587890625
100301,-2.9296875,-11.16943359375,-0.8544921875,0.05126953125,0.01123046875,1.02978515625
100302,-1.0986328125,-6.28662109375,-0.42724609375,0.1015625,-0.04150390625,1.0302734375
100303,0.0,-2.01416015625,0.54931640625,0.115234375,0.013671875,1.04150390625
100304,-0.3662109375,0.3662109375,1.77001953125,0.0498046875,0.01953125,1.0263671875
100305,-0.54931640625,-0.91552734375,1.0986328125,0.017578125,0.0,1.021484375
100306,0.244140625,-2.25830078125,0.30517578125,0.017578125,-0.001953125,1.01904296875
100307,0.67138671875,-2.197265625,0.244140625,0.04052734375,0.0087890625,1.02490234375
100308,0.48828125,-1.708984375,1.15966796875,0.05859375,0.0107421875,1.0224609375
100309,0.18310546875,-1.77001953125,1.220703125,0.03662109375,0.00390625,1.0224609375
100310,0.48828125,-1.77001953125,1.15966796875,0.03466796875,0.00927734375,1.0283203125
100311,1.0986328125,-2.8076171875,1.15966796875,0.04052734375,0.0068359375,1.02197265625
100312,0.9765625,-3.35693359375,1.15966796875,0.0361328125,0.0126953125,1.02294921875
100313,1.0986328125,-3.662109375,1.953125,0.02783203125,0.00048828125,1.02587890625
100314,1.64794921875,-4.33349609375,1.5869140625,0.0341796875,0.00146484375,1.0224609375
100315,1.5869140625,-4.5166015625,1.46484375,0.0390625,0.00634765625,1.02197265625
100316,1.64794921875,-4.5166015625,1.52587890625,0.0390625,0.0087890625,1.0224609375
100317,2.13623046875,-4.5166015625,1.15966796875,0.03857421875,0.01123046875,1.02783203125
100318,1.89208984375,-4.638671875,1.52587890625,0.0361328125,0.0048828125,1.02392578125
100319,2.99072265625,-4.39453125,1.3427734375,0.03515625,0.0048828125,1.02099609375
100320,2.5634765625,-4.2724609375,1.28173828125,0.04248046875,0.00146484375,1.01708984375
100321,2.74658203125,-4.21142578125,1.03759765625,0.04150390625,0.00146484375,1.01806640625
100322,2.685546875,-4.2724609375,1.15966796875,0.0419921875,0.00927734375,1.01904296875
100323,3.35693359375,-3.5400390625,0.8544921875,0.04296875,0.0107421875,1.02099609375
100324,3.173828125,-3.47900390625,0.8544921875,0.03857421875,0.0068359375,1.0185546875
100325,3.2958984375,-3.0517578125,0.67138671875,0.04345703125,0.01220703125,1.021484375
100326,3.173828125,-2.99072265625,0.48828125,0.03955078125,0.00830078125,1.01708984375
100327,3.11279296875,-3.11279296875,0.54931640625,0.0390625,0.0029296875,1.025390625
100328,2.8076171875,-2.50244140625,0.30517578125,0.03759765625,0.01220703125,1.0205078125
100329,2.99072265625,-2.3193359375,0.0,0.04345703125,0.01220703125,1.02490234375
100330,2.62451171875,-2.25830078125,0.0,0.04443359375,0.0166015625,1.0224609375
100331,2.0751953125,-1.77001953125,0.0,0.03857421875,0.01171875,1.02392578125
100332,1.953125,-1.708984375,-0.1220703125,0.04296875,0.0078125,1.0244140625
100333,2.197265625,-1.5869140625,-0.06103515625,0.04052734375,0.01513671875,1.01806640625
100334,2.01416015625,-1.03759765625,-0.30517578125,0.0458984375,0.017578125,1.0224609375
100335,1.5869140625,-1.220703125,-0.1220703125,0.04345703125,0.01025390625,1.01708984375
100336,1.89208984375,-1.28173828125,-0.3662109375,0.0380859375,0.01171875,1.01953125
100337,1.77001953125,-1.220703125,-0.42724609375,0.03955078125,0.01318359375,1.0234375
100338,1.5869140625,-1.0986328125,-0.48828125,0.041015625,0.0146484375,1.015625
100339,1.708984375,-0.9765625,-0.3662109375,0.04638671875,0.009765625,1.02197265625
100340,1.52587890625,-0.91552734375,-0.3662109375,0.04296875,0.015625,1.0185546875
100341,1.40380859375,-0.732421875,-0.732421875,0.04443359375,0.00927734375,1.01123046875
100342,1.3427734375,-1.40380859375,-0.1220703125,0.04248046875,0.013671875,1.01416015625
100343,1.40380859375,-1.03759765625,-0.244140625,0.04443359375,0.021484375,1.01806640625
100344,1.28173828125,-1.03759765625,-0.54931640625,0.0400390625,0.0146484375,1.0166015625
100345,0.79345703125,-0.8544921875,-0.42724609375,0.04736328125,0.01416015625,1.0166015625
100346,1.0986328125,-1.0986328125,-0.67138671875,0.04833984375,0.01318359375,1.017578125
100347,1.3427734375,-0.732421875,-0.8544921875,0.04345703125,0.017578125,1.01513671875
100348,1.28173828125,-0.732421875,-0.9765625,0.044921875,0.017578125,1.0244140625
100349,1.52587890625,-0.67138671875,-0.48828125,0.04541015625,0.0166015625,1.02001953125
100350,1.77001953125,-1.15966796875,-0.91552734375,0.0439453125,0.009765625,1.02490234375
100351,1.5869140625,-1.3427734375,-0.91552734375,0.03955078125,0.01806640625,1.025390625
100352,2.25830078125,-1.28173828125,-0.79345703125,0.04833984375,0.01318359375,1.021484375
100353,2.01416015625,-1.8310546875,-1.15966796875,0.0478515625,0.015625,1.0244140625
100354,2.74658203125,-2.197265625,-1.0986328125,0.04150390625,0.009765625,1.01611328125
100355,2.86865234375,-2.50244140625,-1.15966796875,0.05078125,0.00732421875,1.01904296875
100356,2.25830078125,-2.685546875,-0.91552734375,0.03564453125,0.02197265625,1.0205078125
100357,2.44140625,-2.74658203125,-0.9765625,0.041015625,0.02001953125,1.02978515625
100358,1.708984375,-3.2958984375,-0.6103515625,0.037109375,0.021484375,1.0205078125
100359,1.46484375,-3.7841796875,-0.30517578125,0.0458984375,0.02001953125,1.0205078125
100360,1.40380859375,-3.84521484375,0.06103515625,0.04296875,0.025390625,1.025390625
100361,1.52587890625,-5.0048828125,0.30517578125,0.0400390625,0.0166015625,1.02978515625
100362,0.9765625,-5.92041015625,0.67138671875,0.0439453125,0.029296875,1.02392578125
100363,0.6103515625,-5.92041015625,1.52587890625,0.05078125,0.02734375,1.0263671875
100364,1.15966796875,-7.14111328125,1.220703125,0.0361328125,0.0244140625,1.02587890625
100365,0.9765625,-8.60595703125,1.5869140625,0.0390625,0.02099609375,1.04248046875
100366,0.42724609375,-10.07080078125,1.8310546875,0.03662109375,0.02490234375,1.03515625
100367,-0.67138671875,-11.90185546875,1.953125,0.04052734375,0.0439453125,1.0439453125
100368,-2.62451171875,-14.16015625,1.89208984375,0.0478515625,0.0166015625,1.05615234375
100369,-6.28662109375,-17.9443359375,1.52587890625,0.03271484375,0.0185546875,1.080078125
100370,-12.26806640625,-23.92578125,2.44140625,0.0673828125,0.0380859375,1.09765625
100371,-17.4560546875,-28.80859375,2.9296875,0.0595703125,0.04931640625,1.1630859375
100372,-28.3203125,-33.447265625,1.953125,0.04150390625,0.00830078125,1.26806640625
100373,-35.64453125,-41.1376953125,0.54931640625,0.06005859375,-0.0009765625,1.2724609375
100374,-43.76220703125,-50.23193359375,-0.30517578125,0.0244140625,-0.025390625,1.28759765625
100375,-57.9833984375,-49.01123046875,-1.15966796875,0.033203125,-0.072265625,1.33935546875
100376,-55.35888671875,-53.1005859375,-2.99072265625,0.02294921875,-0.02099609375,1.59765625
100377,-23.62060546875,-72.93701171875,5.615234375,0.25927734375,0.53955078125,1.73388671875
100378,-19.83642578125,-87.7685546875,9.521484375,0.0302734375,-0.12548828125,1.53759765625
100379,-32.89794921875,-92.46826171875,5.79833984375,0.07470703125,0.00927734375,1.42431640625
100380,-26.67236328125,-103.02734375,10.8642578125,0.09033203125,0.22509765625,1.544921875
100381,-28.25927734375,-114.31884765625,12.5732421875,0.06103515625,0.015625,1.56982421875
100382,-32.40966796875,-120.4833984375,11.8408203125,0.0830078125,0.02783203125,1.56640625
100383,-29.72412109375,-128.84521484375,12.75634765625,0.08251953125,0.095703125,1.58544921875
100384,-29.4189453125,-138.97705078125,13.24462890625,0.0869140625,0.0166015625,1.6025390625
100385,-31.25,-146.8505859375,12.51220703125,0.09814453125,-0.01025390625,1.572265625
100386,-31.18896484375,-156.18896484375,11.474609375,0.068359375,-0.0146484375,1.60986328125
100387,-30.517578125,-165.4052734375,10.68115234375,0.08544921875,-0.04638671875,1.6064453125
100388,-30.33447265625,-174.1943359375,9.21630859375,0.0791015625,-0.0595703125,1.6142578125
100389,-29.1748046875,-183.7158203125,8.544921875,0.10498046875,0.00341796875,1.6572265625
100390,-28.6865234375,-196.2890625,8.97216796875,0.087890625,-0.001953125,1.77734375
100391,-27.9541015625,-208.06884765625,9.1552734375,0.08544921875,-0.00390625,1.8076171875
100392,-25.20751953125,-221.74072265625,8.72802734375,0.07568359375,-0.09716796875,1.91552734375
100393,-23.37646484375,-236.63330078125,6.103515625,0.06201171875,-0.1787109375,1.91259765625
100394,-20.32470703125,-252.13623046875,1.89208984375,0.0478515625,-0.208984375,1.970703125
100395,-14.7705078125,-267.822265625,-1.46484375,0.05517578125,-0.236328125,2.02197265625
100396,-9.6435546875,-286.1328125,-6.34765625,0.08740234375,-0.3017578125,2.07177734375
100397,-6.591796875,-304.01611328125,-11.5966796875,0.08056640625,-0.33349609375,2.18896484375
100398,-3.662109375,-324.40185546875,-16.6015625,0.0419921875,-0.3037109375,2.32373046875
100399,4.2724609375,-345.21484375,-19.47021484375,0.0205078125,-0.18994140625,2.380859375
100400,12.8173828125,-367.98095703125,-18.798828125,0.1044921875,-0.107421875,2.58740234375
100401,20.01953125,-387.8173828125,-16.29638671875,0.05615234375,-0.04736328125,2.72021484375
100402,12.20703125,-409.0576171875,-13.61083984375,-0.02294921875,-0.19482421875,2.69775390625
100403,1.220703125,-427.18505859375,-14.0380859375,0.20849609375,-0.04150390625,3.0478515625
100404,11.29150390625,-442.07763671875,-9.94873046875,0.1787109375,0.123046875,3.09716796875
100405,9.6435546875,-452.20947265625,-7.6904296875,0.1845703125,-0.294921875,3.27099609375
100406,-3.47900390625,-458.0078125,-13.7939453125,0.326171875,-0.6513671875,3.21435546875
100407,-8.97216796875,-464.7216796875,-25.93994140625,0.35107421875,-0.34814453125,3.14697265625
100408,6.103515625,-475.7080078125,-24.169921875,0.052734375,0.0966796875,3.001953125
100409,14.5263671875,-479.98046875,-20.1416015625,-0.021484375,0.15576171875,3.01904296875
100410,22.4609375,-482.60498046875,-16.4794921875,0.01123046875,0.24560546875,3.0419921875
100411,34.97314453125,-480.89599609375,-9.521484375,-0.111328125,0.49462890625,3.064453125
100412,45.10498046875,-467.4072265625,0.06103515625,-0.21337890625,0.4873046875,3.21826171875
100413,49.86572265625,-456.9091796875,6.4697265625,-0.4404296875,0.431640625,3.45166015625
100414,57.80029296875,-453.43017578125,13.0615234375,-0.9375,0.310546875,3.35693359375
100415,63.04931640625,-451.47705078125,18.49365234375,-1.4296875,0.0380859375,2.52490234375
100416,63.17138671875,-440.673828125,16.17431640625,-1.5732421875,-0.27099609375,2.4072265625
100417,56.0302734375,-445.6787109375,-12.3291015625,-1.91357421875,-0.79931640625,2.10498046875
100418,36.68212890625,-453.2470703125,-50.96435546875,-2.38818359375,-1.14599609375,0.69189453125
100419,42.236328125,-364.92919921875,-79.833984375,-2.47216796875,-1.17626953125,-1.1005859375
100420,2.74658203125,-223.57177734375,-110.4736328125,-2.39013671875,-0.8681640625,-0.423828125
100421,-31.005859375,-130.4931640625,-129.08935546875,-2.28466796875,-0.41650390625,1.3505859375
100422,-34.48486328125,-60.97412109375,-132.38525390625,-2.06396484375,-0.04638671875,1.4765625
100423,-16.05224609375,5.4931640625,-128.72314453125,-2.03271484375,0.2373046875,1.1171875
100424,12.63427734375,52.1240234375,-121.337890625,-2.07958984375,0.3720703125,0.87548828125
100425,46.20361328125,88.56201171875,-109.7412109375,-1.859375,0.3740234375,0.74072265625
100426,74.52392578125,109.619140625,-97.65625,-1.51806640625,0.2705078125,0.8349609375
100427,94.17724609375,120.1171875,-85.26611328125,-1.29296875,0.1416015625,0.9169921875
100428,104.43115234375,124.51171875,-75.0732421875,-1.19970703125,-0.017578125,0.84716796875
100429,107.72705078125,127.9296875,-66.89453125,-1.17431640625,-0.22509765625,0.69482421875
100430,101.50146484375,132.26318359375,-61.03515625,-1.16552734375,-0.384765625,0.572265625
100431,86.42578125,137.14599609375,-56.57958984375,-1.14501953125,-0.4970703125,0.53173828125
100432,61.8896484375,143.00537109375,-52.8564453125,-1.09326171875,-0.58154296875,0.55078125
100433,35.400390625,148.5595703125,-48.76708984375,-1.0458984375,-0.60986328125,0.5712890625
100434,7.4462890625,155.76171875,-44.98291015625,-1.01953125,-0.58203125,0.5751953125
100435,-15.56396484375,163.6962890625,-40.58837890625,-1.0078125,-0.51220703125,0.5810546875
100436,-32.71484375,173.64501953125,-35.09521484375,-0.984375,-0.4033203125,0.60546875
100437,-41.50390625,183.65478515625,-29.11376953125,-0.95361328125,-0.26708984375,0.62890625
100438,-42.8466796875,195.37353515625,-21.42333984375,-0.92529296875,-0.12646484375,0.6455078125
100439,-38.9404296875,206.4208984375,-13.24462890625,-0.904296875,-0.0439453125,0.666015625
100440,-30.8837890625,219.78759765625,-4.5166015625,-0.87451171875,0.02001953125,0.685546875
100441,-21.97265625,232.11669921875,3.72314453125,-0.83837890625,0.0478515625,0.70849609375
100442,-11.8408203125,246.03271484375,11.77978515625,-0.81103515625,0.03564453125,0.73876953125
100443,-4.33349609375,259.58251953125,17.822265625,-0.7861328125,-0.00048828125,0.77099609375
100444,0.18310546875,273.01025390625,23.25439453125,-0.75,-0.05517578125,0.8115234375
100445,1.15966796875,285.888671875,26.91650390625,-0.73291015625,-0.1142578125,0.86767578125
100446,-2.13623046875,299.37744140625,29.35791015625,-0.71044921875,-0.17431640625,0.9111328125
100447,-9.46044921875,311.70654296875,30.76171875,-0.68994140625,-0.208984375,0.9716796875
100448,-16.7236328125,324.5849609375,31.79931640625,-0.66357421875,-0.21337890625,1.03076171875
100449,-23.86474609375,335.51025390625,32.04345703125,-0.64306640625,-0.19140625,1.09521484375
100450,-29.052734375,346.13037109375,31.982421875,-0.62646484375,-0.14892578125,1.1650390625
100451,-31.67724609375,355.3466796875,32.65380859375,-0.59326171875,-0.1005859375,1.220703125
100452,-31.67724609375,362.73193359375,32.16552734375,-0.5517578125,-0.0595703125,1.30029296875
100453,-29.72412109375,368.71337890625,32.470703125,-0.51806640625,-0.0283203125,1.37060546875
100454,-26.123046875,374.57275390625,31.494140625,-0.490234375,-0.00390625,1.43798828125
100455,-21.3623046875,378.84521484375,30.76171875,-0.47265625,0.00341796875,1.484375
100456,-17.2119140625,382.32421875,28.38134765625,-0.46337890625,-0.0107421875,1.55517578125
100457,-15.380859375,385.80322265625,25.146484375,-0.43017578125,-0.025390625,1.61572265625
100458,-14.70947265625,388.24462890625,21.05712890625,-0.4072265625,-0.04541015625,1.68115234375
100459,-16.17431640625,390.9912109375,16.11328125,-0.36279296875,-0.05322265625,1.74658203125
100460,-18.24951171875,392.578125,10.498046875,-0.3232421875,-0.0673828125,1.84521484375
100461,-21.8505859375,393.85986328125,5.2490234375,-0.2890625,-0.06591796875,1.94921875
100462,-24.7802734375,393.5546875,-0.6103515625,-0.248046875,-0.04443359375,2.02099609375
100463,-26.55029296875,393.24951171875,-5.92041015625,-0.205078125,-0.01220703125,2.12939453125
100464,-26.91650390625,391.66259765625,-10.8642578125,-0.14697265625,0.0234375,2.22216796875
100465,-26.123046875,388.7939453125,-15.31982421875,-0.0908203125,0.04345703125,2.3232421875
100466,-24.5361328125,385.25390625,-19.8974609375,-0.04345703125,0.052734375,2.41357421875
100467,-23.37646484375,380.55419921875,-24.0478515625,-0.00341796875,0.05517578125,2.52685546875
100468,-23.25439453125,375.42724609375,-28.01513671875,0.04541015625,0.04931640625,2.64306640625
100469,-23.37646484375,370.30029296875,-31.31103515625,0.08642578125,0.046875,2.76123046875
100470,-24.47509765625,365.29541015625,-34.0576171875,0.1044921875,0.05859375,2.8935546875
100471,-25.390625,361.75537109375,-35.64453125,0.13818359375,0.0888671875,3.0703125
100472,-25.32958984375,359.55810546875,-36.1328125,0.1484375,0.12939453125,3.26513671875
100473,-23.193359375,360.107421875,-35.82763671875,0.18896484375,0.16357421875,3.47705078125
100474,-18.310546875,363.4033203125,-33.75244140625,0.25146484375,0.18212890625,3.6435546875
100475,-9.70458984375,370.4833984375,-29.6630859375,0.36865234375,0.169921875,3.7685546875
100476,-2.50244140625,380.9814453125,-24.7802734375,0.5263671875,0.07373046875,3.80224609375
100477,2.62451171875,394.47021484375,-20.1416015625,0.76708984375,-0.1162109375,3.77392578125
100478,2.9296875,408.63037109375,-16.9677734375,1.00634765625,-0.3515625,3.72802734375
100479,-4.69970703125,422.9736328125,-15.93017578125,1.35400390625,-0.65673828125,3.638671875
100480,-20.5078125,432.6171875,-18.6767578125,1.767578125,-1.0048828125,3.53759765625
100481,-42.6025390625,435.9130859375,-24.7802734375,2.1572265625,-1.32958984375,3.48193359375
100482,-72.8759765625,429.99267578125,-34.60693359375,2.6015625,-1.62255859375,3.38037109375
100483,-118.83544921875,411.865234375,-46.38671875,2.8515625,-1.697265625,3.35986328125
100484,-184.4482421875,387.5732421875,-59.38720703125,3.07763671875,-1.462890625,3.13330078125
100485,-235.83984375,358.7646484375,-65.00244140625,3.24169921875,-0.9765625,2.75927734375
100486,-285.21728515625,324.27978515625,-59.38720703125,3.25390625,-0.1669921875,2.2900390625
100487,-332.3974609375,291.3818359375,-41.1376953125,3.24365234375,0.84765625,1.943359375
100488,-365.66162109375,258.72802734375,-9.09423828125,3.53662109375,1.7841796875,1.802734375
100489,-336.42578125,233.0322265625,20.8740234375,3.9140625,2.2841796875,1.78759765625
100490,-230.04150390625,209.3505859375,42.1142578125,4.296875,2.4599609375,1.7001953125
100491,-96.8017578125,191.5283203125,47.8515625,4.62451171875,2.20703125,1.46044921875
100492,21.97265625,174.62158203125,39.48974609375,4.98291015625,1.56884765625,1.3330078125
100493,81.54296875,151.67236328125,21.6064453125,5.30078125,0.84326171875,1.3828125
100494,96.61865234375,112.73193359375,-6.77490234375,5.43408203125,0.0029296875,1.5107421875
100495,78.43017578125,63.720703125,-38.9404296875,5.2109375,-0.5888671875,1.54248046875
100496,45.166015625,4.94384765625,-71.47216796875,4.7626953125,-0.791015625,1.46728515625
100497,16.54052734375,-46.5087890625,-95.03173828125,4.24951171875,-0.65625,1.375
100498,-3.72314453125,-91.9189453125,-109.86328125,3.63916015625,-0.373046875,1.365234375
100499,-10.8642578125,-120.361328125,-115.6005859375,3.07568359375,-0.08154296875,1.41455078125
100500,-7.38525390625,-136.3525390625,-114.3798828125,2.58642578125,0.13623046875,1.48193359375
100501,2.01416015625,-140.5029296875,-106.8115234375,2.21484375,0.3203125,1.54736328125
100502,38.9404296875,-150.87890625,-76.72119140625,1.7568359375,0.85302734375,1.59814453125
100503,438.1103515625,-299.9267578125,67.68798828125,1.337890625,5.80859375,5.9267578125
100504,410.94970703125,-251.0986328125,60.4248046875,-2.025390625,-1.8037109375,-0.681640625
100505,382.8125,-288.0859375,55.11474609375,-0.96875,-0.0625,-0.92626953125
100506,364.1357421875,-331.9091796875,92.1630859375,-0.44140625,-0.94873046875,2.32080078125
100507,202.880859375,-356.4453125,146.42333984375,-0.7109375,0.11767578125,1.12646484375
100508,89.2333984375,-386.3525390625,181.57958984375,-0.1259765625,-0.0673828125,1.62939453125
100509,3.662109375,-402.28271484375,192.2607421875,0.31005859375,0.62890625,1.84130859375
100510,-33.75244140625,-393.12744140625,181.57958984375,0.14697265625,0.75732421875,1.8056640625
100511,-36.62109375,-388.12255859375,164.73388671875,-0.17578125,0.7822265625,2.2001953125
100512,-39.36767578125,-371.39892578125,135.3759765625,-0.1328125,0.8525390625,2.0556640625
100513,-38.57421875,-363.76953125,92.83447265625,0.265625,0.8603515625,2.123046875
100514,-37.2314453125,-367.919921875,49.072265625,0.47265625,0.75537109375,2.28515625
100515,-46.142578125,-347.83935546875,6.9580078125,0.35107421875,0.52001953125,1.71484375
100516,-47.36328125,-317.2607421875,-15.7470703125,0.13720703125,0.22900390625,1.486328125
100517,-48.095703125,-277.64892578125,-24.90234375,0.0732421875,0.02197265625,1.41845703125
100518,-40.8935546875,-224.79248046875,-24.0478515625,0.1904296875,-0.11962890625,1.54541015625
100519,-29.84619140625,-162.2314453125,-16.41845703125,0.2119140625,-0.16650390625,1.43017578125
100520,-21.05712890625,-112.24365234375,-4.82177734375,0.1767578125,-0.18017578125,1.31103515625
100521,-10.6201171875,-78.0029296875,5.859375,0.146484375,-0.1279296875,1.1962890625
100522,-3.23486328125,-55.908203125,11.1083984375,0.12744140625,-0.04638671875,1.130859375
100523,-0.54931640625,-41.32080078125,10.31494140625,0.087890625,0.009765625,1.087890625
100524,-1.0986328125,-34.3017578125,7.2021484375,0.05908203125,0.04150390625,1.048828125
100525,-2.197265625,-30.2734375,2.62451171875,0.03173828125,0.04150390625,1.0361328125
100526,-2.685546875,-27.77099609375,-1.8310546875,0.029296875,0.0341796875,1.03125
100527,-2.99072265625,-25.5126953125,-3.90625,0.0390625,0.005859375,1.0302734375
100528,-2.3193359375,-23.37646484375,-2.8076171875,0.0517578125,0.0009765625,1.02783203125
100529,-0.9765625,-19.71435546875,-0.732421875,0.06787109375,-0.00439453125,1.0361328125
100530,-0.18310546875,-16.357421875,0.8544921875,0.07177734375,-0.00537109375,1.0341796875
100531,0.732421875,-13.7939453125,1.46484375,0.06298828125,0.0068359375,1.02880859375
100532,0.91552734375,-7.62939453125,-0.244140625,0.14208984375,0.02001953125,1.041015625
100533,2.86865234375,-1.89208984375,-0.06103515625,0.12353515625,0.03173828125,1.0390625
100534,-0.18310546875,0.54931640625,1.220703125,0.0556640625,0.04833984375,1.02734375
100535,-2.50244140625,-0.79345703125,1.708984375,0.0185546875,0.02392578125,1.02294921875
100536,-0.9765625,-2.685546875,0.6103515625,0.00830078125,-0.01708984375,1.02197265625
100537,0.8544921875,-2.50244140625,0.42724609375,0.0478515625,0.005859375,1.02734375
100538,1.15966796875,-1.40380859375,0.91552734375,0.04345703125,0.0126953125,1.01953125
100539,0.9765625,-1.46484375,0.91552734375,0.04638671875,0.017578125,1.01611328125
100540,0.3662109375,-1.52587890625,0.9765625,0.03125,0.0107421875,1.02001953125
100541,0.1220703125,-2.25830078125,1.28173828125,0.03564453125,0.015625,1.0244140625
100542,0.42724609375,-2.8076171875,1.28173828125,0.0361328125,0.00390625,1.01904296875
100543,0.54931640625,-3.35693359375,1.40380859375,0.02734375,0.01416015625,1.01904296875
100544,0.79345703125,-3.60107421875,1.28173828125,0.0283203125,0.00341796875,1.025390625
100545,0.6103515625,-4.21142578125,1.708984375,0.03076171875,0.01025390625,1.0234375
100546,0.79345703125,-4.638671875,1.3427734375,0.03515625,0.01318359375,1.0263671875
100547,1.28173828125,-4.7607421875,1.46484375,0.037109375,0.0146484375,1.02783203125
100548,1.40380859375,-4.638671875,0.8544921875,0.0361328125,0.01513671875,1.033203125
100549,1.64794921875,-4.5166015625,1.46484375,0.037109375,0.0126953125,1.02490234375
100550,1.5869140625,-5.18798828125,1.15966796875,0.0302734375,0.0087890625,1.02587890625
100551,1.953125,-5.0048828125,0.9765625,0.03271484375,0.0,1.02001953125
100552,2.13623046875,-5.126953125,0.79345703125,0.04296875,0.00927734375,1.02783203125
100553,2.3193359375,-5.06591796875,0.91552734375,0.0439453125,0.0107421875,1.025390625
100554,2.38037109375,-4.33349609375,0.48828125,0.033203125,0.01025390625,1.0126953125
100555,2.86865234375,-4.0283203125,0.1220703125,0.04248046875,0.00634765625,1.01953125
100556,3.0517578125,-3.5400390625,0.67138671875,0.041015625,0.00927734375,1.0244140625
100557,2.25830078125,-3.41796875,0.1220703125,0.04296875,0.009765625,1.02001953125
100558,2.44140625,-2.685546875,0.0,0.04443359375,0.01611328125,1.0185546875
100559,2.9296875,-2.685546875,-0.18310546875,0.0390625,0.015625,1.0234375
100560,2.8076171875,-2.197265625,-0.48828125,0.0380859375,0.01708984375,1.02392578125
100561,2.74658203125,-2.13623046875,-0.42724609375,0.037109375,0.01806640625,1.0234375
100562,2.50244140625,-2.01416015625,-0.244140625,0.03271484375,0.0166015625,1.025390625
100563,2.01416015625,-1.64794921875,-0.54931640625,0.03955078125,0.01416015625,1.02197265625
100564,1.5869140625,-1.64794921875,-0.42724609375,0.04150390625,0.0166015625,1.0185546875
100565,1.77001953125,-1.46484375,-0.30517578125,0.037109375,0.0146484375,1.02734375
100566,1.3427734375,-1.3427734375,-0.67138671875,0.03369140625,0.01123046875,1.02099609375
100567,1.5869140625,-1.46484375,-0.1220703125,0.0390625,0.01513671875,1.01953125
100568,2.01416015625,-1.46484375,-0.3662109375,0.03466796875,0.01953125,1.01953125
100569,1.8310546875,-1.3427734375,-0.79345703125,0.04052734375,0.013671875,1.0146484375
100570,1.64794921875,-1.3427734375,-0.67138671875,0.04052734375,0.01611328125,1.02099609375
100571,1.77001953125,-1.52587890625,-0.67138671875,0.046875,0.021484375,1.021484375
100572,1.5869140625,-1.77001953125,-0.30517578125,0.04052734375,0.02294921875,1.0185546875
100573,1.03759765625,-0.9765625,-0.6103515625,0.05615234375,0.021484375,1.01708984375
100574,0.9765625,-1.52587890625,-0.06103515625,0.0400390625,0.0224609375,1.02783203125
100575,1.28173828125,-1.46484375,-0.06103515625,0.03759765625,0.021484375,1.01904296875
100576,0.8544921875,-1.28173828125,-0.244140625,0.04248046875,0.02294921875,1.0185546875
100577,0.732421875,-1.46484375,-0.48828125,0.0400390625,0.02001953125,1.0205078125
100578,0.732421875,-1.3427734375,-0.3662109375,0.03759765625,0.02001953125,1.02490234375
100579,0.9765625,-2.3193359375,-0.18310546875,0.037109375,0.01806640625,1.02294921875
100580,1.3427734375,-2.13623046875,-0.06103515625,0.0439453125,0.0205078125,1.0205078125
100581,0.9765625,-2.50244140625,-0.3662109375,0.03857421875,0.0166015625,1.02001953125
100582,1.0986328125,-2.86865234375,-0.48828125,0.044921875,0.02001953125,1.02099609375
100583,1.40380859375,-2.74658203125,-0.3662109375,0.0400390625,0.01953125,1.01708984375
100584,1.0986328125,-3.41796875,-0.1220703125,0.04541015625,0.02099609375,1.0234375
100585,0.9765625,-3.23486328125,-0.18310546875,0.04150390625,0.01708984375,1.02685546875
100586,1.3427734375,-2.99072265625,0.0,0.04345703125,0.02001953125,1.02734375
100587,1.77001953125,-3.0517578125,-0.67138671875,0.044921875,0.02294921875,1.02099609375
100588,1.77001953125,-2.86865234375,-0.42724609375,0.046875,0.03076171875,1.01953125
100589,2.197265625,-3.173828125,-0.1220703125,0.0419921875,0.0166015625,1.02685546875
100590,2.0751953125,-3.7841796875,-0.244140625,0.0400390625,0.021484375,1.02978515625
100591,1.28173828125,-4.69970703125,0.244140625,0.041015625,0.0302734375,1.0302734375
100592,1.3427734375,-5.92041015625,0.42724609375,0.02783203125,0.033203125,1.03369140625
100593,1.0986328125,-6.2255859375,0.79345703125,0.037109375,0.03173828125,1.02734375
100594,0.9765625,-7.9345703125,0.79345703125,0.037109375,0.02001953125,1.0283203125
100595,1.220703125,-8.36181640625,0.8544921875,0.0439453125,0.013671875,1.03076171875
100596,0.6103515625,-9.46044921875,0.732421875,0.0400390625,0.0205078125,1.03955078125
100597,0.0,-11.474609375,0.30517578125,0.04443359375,0.01513671875,1.0400390625
100598,-1.0986328125,-13.61083984375,-0.06103515625,0.04345703125,0.01611328125,1.0576171875
100599,-3.72314453125,-17.39501953125,-0.1220703125,0.0751953125,0.0029296875,1.0634765625
100600,-8.544921875,-26.18408203125,0.06103515625,0.08837890625,-0.0205078125,1.10693359375
100601,-18.61572265625,-39.36767578125,-4.150390625,0.0703125,-0.13232421875,1.2275390625
100602,-31.43310546875,-40.95458984375,-7.32421875,0.02099609375,-0.14306640625,1.251953125
100603,-48.2177734375,-34.3017578125,-10.6201171875,0.0029296875,-0.14013671875,1.36083984375
100604,-32.16552734375,-33.26416015625,-10.986328125,0.07177734375,0.37841796875,1.5517578125
100605,2.13623046875,-57.2509765625,0.244140625,0.0751953125,0.2578125,1.65576171875
100606,-8.11767578125,-67.56591796875,-3.173828125,0.0322265625,-0.1513671875,1.39892578125
100607,-9.21630859375,-75.1953125,-1.52587890625,0.1591796875,0.12744140625,1.32958984375
100608,-4.82177734375,-81.23779296875,0.67138671875,0.0849609375,0.07080078125,1.4013671875
100609,-7.87353515625,-88.80615234375,0.9765625,0.06005859375,0.03564453125,1.4453125
100610,-8.72802734375,-95.39794921875,2.74658203125,0.0654296875,0.1884765625,1.46826171875
100611,-8.544921875,-104.1259765625,6.40869140625,0.0673828125,0.1494140625,1.4951171875
100612,-12.51220703125,-112.73193359375,8.056640625,0.06494140625,0.07373046875,1.50146484375
100613,-16.78466796875,-122.86376953125,9.3994140625,0.07421875,0.09912109375,1.5390625
100614,-17.63916015625,-131.89697265625,10.68115234375,0.0751953125,0.0849609375,1.56494140625
100615,-19.53125,-141.11328125,10.43701171875,0.078125,0.046875,1.580078125
100616,-20.5078125,-149.59716796875,9.70458984375,0.07763671875,0.02099609375,1.59521484375
100617,-20.32470703125,-158.50830078125,8.7890625,0.07861328125,-0.01953125,1.61181640625
100618,-20.751953125,-168.64013671875,7.38525390625,0.08447265625,-0.064453125,1.6259765625
100619,-21.91162109375,-178.77197265625,5.18798828125,0.0703125,-0.02978515625,1.64599609375
100620,-21.54541015625,-189.697265625,5.31005859375,0.0712890625,0.01220703125,1.74365234375
100621,-20.32470703125,-201.904296875,5.79833984375,0.0859375,0.0654296875,1.87744140625
100622,-20.01953125,-217.529296875,6.89697265625,0.087890625,0.0400390625,1.90478515625
100623,-19.53125,-231.689453125,6.89697265625,0.06298828125,0.02880859375,2.0166015625
100624,-19.47021484375,-249.267578125,5.9814453125,0.0576171875,-0.01806640625,2.05126953125
100625,-19.10400390625,-266.17431640625,5.06591796875,0.03369140625,-0.0986328125,2.10205078125
100626,-18.06640625,-283.8134765625,1.89208984375,0.01708984375,-0.14892578125,2.15771484375
100627,-14.22119140625,-302.91748046875,-0.9765625,0.04443359375,-0.19091796875,2.17529296875
100628,-9.3994140625,-324.03564453125,-5.37109375,0.0048828125,-0.29833984375,2.31640625
100629,-6.2255859375,-345.27587890625,-10.8642578125,-0.00439453125,-0.3447265625,2.4462890625
100630,2.38037109375,-369.5068359375,-15.13671875,0.06982421875,-0.21728515625,2.55419921875
100631,10.25390625,-393.85986328125,-14.7705078125,0.20166015625,-0.08203125,2.80859375
100632,6.40869140625,-419.189453125,-12.87841796875,0.0478515625,-0.2109375,2.9111328125
100633,-8.97216796875,-434.9365234375,-14.58740234375,0.109375,-0.19140625,3.17041015625
100634,-1.89208984375,-458.55712890625,-14.09912109375,0.0537109375,-0.1044921875,3.0673828125
100635,-2.25830078125,-468.017578125,-14.83154296875,0.18603515625,-0.53173828125,3.1005859375
100636,-15.13671875,-469.3603515625,-25.81787109375,0.27734375,-0.759765625,3.283203125
100637,-14.6484375,-475.40283203125,-34.97314453125,0.36865234375,-0.3046875,3.27490234375
100638,-8.6669921875,-489.8681640625,-34.24072265625,0.03955078125,-0.09814453125,3.0341796875
100639,-7.6904296875,-499.20654296875,-34.66796875,-0.11083984375,-0.10498046875,3.0439453125
100640,-0.244140625,-501.28173828125,-33.87451171875,-0.14794921875,0.02685546875,3.0751953125
100641,14.2822265625,-498.47412109375,-30.3955078125,-0.015625,0.26953125,3.04248046875
100642,18.85986328125,-489.56298828125,-25.57373046875,-0.19970703125,0.13427734375,3.23193359375
100643,12.75634765625,-478.08837890625,-23.0712890625,-0.3837890625,0.076171875,3.3154296875
100644,6.4697265625,-472.22900390625,-20.99609375,-0.84228515625,0.0146484375,3.28369140625
100645,-2.3193359375,-466.12548828125,-20.32470703125,-1.3310546875,-0.162109375,3.017578125
100646,-16.845703125,-458.43505859375,-23.4375,-1.84619140625,-0.32421875,2.9638671875
100647,-27.83203125,-455.38330078125,-36.31591796875,-2.005859375,-0.52880859375,2.3212890625
100648,-38.87939453125,-463.623046875,-60.72998046875,-2.63916015625,-0.677734375,1.8740234375
100649,-38.57421875,-431.21337890625,-87.58544921875,-2.8798828125,-1.04052734375,-0.52783203125
100650,-35.400390625,-293.0908203125,-107.0556640625,-2.96484375,-0.755859375,-1.37255859375
100651,-49.6826171875,-152.40478515625,-120.2392578125,-2.8330078125,-0.3359375,0.21142578125
100652,-44.61669921875,-59.26513671875,-116.88232421875,-2.45263671875,0.0234375,1.14111328125
100653,-27.03857421875,24.7802734375,-106.14013671875,-2.1884765625,0.18603515625,1.1220703125
100654,-3.662109375,82.21435546875,-92.8955078125,-2.16552734375,0.30908203125,0.9482421875
100655,26.18408203125,116.3330078125,-76.23291015625,-2.03759765625,0.30029296875,0.86572265625
100656,49.86572265625,129.57763671875,-60.05859375,-1.65673828125,0.15869140625,0.89208984375
100657,62.43896484375,128.23486328125,-45.59326171875,-1.2841796875,0.00244140625,0.9609375
100658,65.24658203125,118.83544921875,-34.3017578125,-1.1083984375,-0.15771484375,0.9619140625
100659,59.08203125,109.43603515625,-25.32958984375,-1.05615234375,-0.35986328125,0.80712890625
100660,48.095703125,107.5439453125,-20.81298828125,-1.06494140625,-0.5205078125,0.5849609375
100661,30.3955078125,113.34228515625,-18.5546875,-1.0927734375,-0.6064453125,0.44970703125
100662,11.53564453125,125.42724609375,-17.4560546875,-1.11572265625,-0.63671875,0.435546875
100663,-9.1552734375,142.4560546875,-17.27294921875,-1.138671875,-0.57666015625,0.45947265625
100664,-22.94921875,160.888671875,-15.13671875,-1.13232421875,-0.44189453125,0.4990234375
100665,-28.99169921875,181.33544921875,-11.5966796875,-1.1328125,-0.29541015625,0.52587890625
100666,-27.16064453125,204.89501953125,-6.53076171875,-1.12890625,-0.138671875,0.56884765625
100667,-19.1650390625,227.4169921875,-0.42724609375,-1.11181640625,-0.01806640625,0.6240234375
100668,-5.18798828125,250.9765625,6.53076171875,-1.0673828125,0.0546875,0.68408203125
100669,9.21630859375,272.0947265625,12.39013671875,-1.0234375,0.07080078125,0.72900390625
100670,23.01025390625,294.189453125,18.49365234375,-0.9736328125,0.04296875,0.79052734375
100671,33.5693359375,313.8427734375,22.39990234375,-0.92138671875,-0.01611328125,0.83984375
100672,39.48974609375,333.80126953125,25.20751953125,-0.89599609375,-0.10400390625,0.88623046875
100673,39.61181640625,352.60009765625,25.87890625,-0.8642578125,-0.1689453125,0.93212890625
100674,35.888671875,372.25341796875,25.45166015625,-0.8388671875,-0.23193359375,0.98583984375
100675,28.3203125,389.70947265625,23.8037109375,-0.8076171875,-0.271484375,1.0478515625
100676,18.310546875,406.43310546875,20.6298828125,-0.7734375,-0.27734375,1.12158203125
100677,9.033203125,419.00634765625,18.310546875,-0.7265625,-0.2705078125,1.228515625
100678,-1.64794921875,429.6875,15.7470703125,-0.68212890625,-0.26318359375,1.3359375
100679,-11.16943359375,437.80517578125,12.8173828125,-0.62744140625,-0.23974609375,1.41943359375
100680,-19.8974609375,445.61767578125,9.82666015625,-0.6123046875,-0.21484375,1.48486328125
100681,-25.57373046875,452.63671875,6.591796875,-0.60302734375,-0.1767578125,1.5322265625
100682,-29.47998046875,458.19091796875,2.50244140625,-0.580078125,-0.1552734375,1.60400390625
100683,-31.8603515625,460.26611328125,-1.64794921875,-0.51318359375,-0.13037109375,1.681640625
100684,-33.14208984375,457.09228515625,-5.92041015625,-0.37890625,-0.125,1.7607421875
100685,-35.0341796875,448.974609375,-11.23046875,-0.24072265625,-0.14111328125,1.857421875
100686,-36.80419921875,434.5703125,-17.2119140625,-0.04052734375,-0.171875,1.9658203125
100687,-37.90283203125,418.0908203125,-24.35302734375,0.11181640625,-0.185546875,2.0166015625
100688,-40.83251953125,399.5361328125,-32.65380859375,0.205078125,-0.1611328125,2.05419921875
100689,-42.66357421875,383.1787109375,-40.46630859375,0.2607421875,-0.14404296875,2.10546875
100690,-41.259765625,368.10302734375,-48.828125,0.2705078125,-0.12646484375,2.1875
100691,-40.4052734375,355.712890625,-59.6923828125,0.24072265625,-0.11083984375,2.28515625
100692,-40.83251953125,346.37451171875,-69.88525390625,0.20654296875,-0.1103515625,2.36962890625
100693,-40.34423828125,338.43994140625,-80.322265625,0.18310546875,-0.1044921875,2.482421875
100694,-39.48974609375,332.82470703125,-88.134765625,0.20458984375,-0.0634765625,2.5908203125
100695,-39.36767578125,328.79638671875,-93.75,0.23193359375,-0.033203125,2.703125
100696,-38.87939453125,328.06396484375,-95.64208984375,0.2333984375,-0.02392578125,2.7802734375
100697,-42.236328125,331.298828125,-95.3369140625,0.2294921875,-0.0478515625,2.84814453125
100698,-47.607421875,338.92822265625,-93.6279296875,0.21875,-0.1025390625,2.92626953125
100699,-56.94580078125,349.853515625,-90.27099609375,0.20361328125,-0.14892578125,2.98828125
100700,-70.25146484375,361.75537109375,-86.48681640625,0.2294921875,-0.17333984375,3.03466796875
100701,-84.1064453125,374.267578125,-81.1767578125,0.3017578125,-0.1669921875,3.10498046875
100702,-95.3369140625,382.32421875,-74.52392578125,0.42822265625,-0.13525390625,3.1962890625
100703,-103.82080078125,386.29150390625,-65.61279296875,0.57958984375,-0.08984375,3.263671875
100704,-108.642578125,386.53564453125,-55.17578125,0.7412109375,-0.0498046875,3.28466796875
100705,-111.083984375,382.26318359375,-41.748046875,0.91552734375,-0.04150390625,3.29345703125
100706,-111.38916015625,377.25830078125,-29.1748046875,1.08984375,-0.06884765625,3.2646484375
100707,-112.24365234375,370.361328125,-15.5029296875,1.2470703125,-0.13232421875,3.2080078125
100708,-114.501953125,365.8447265625,-3.60107421875,1.39013671875,-0.2158203125,3.10107421875
100709,-120.849609375,361.38916015625,7.75146484375,1.53857421875,-0.31787109375,2.99267578125
100710,-131.4697265625,356.4453125,17.15087890625,1.67822265625,-0.35791015625,2.8037109375
100711,-154.60205078125,349.853515625,27.099609375,1.853515625,-0.20166015625,2.51025390625
100712,-209.89990234375,338.623046875,37.78076171875,1.70947265625,0.130859375,2.5078125
100713,-261.5966796875,329.4677734375,51.81884765625,2.00341796875,0.79931640625,2.41796875
100714,-264.09912109375,315.12451171875,69.76318359375,2.33984375,1.3896484375,2.43798828125
100715,-223.20556640625,301.6357421875,86.24267578125,2.72607421875,1.740234375,2.38427734375
100716,-139.58740234375,281.6162109375,98.6328125,3.10546875,1.83544921875,2.27734375
100717,-46.81396484375,258.1787109375,102.1728515625,3.44287109375,1.4853515625,2.0908203125
100718,27.2216796875,229.00390625,94.17724609375,3.77001953125,0.81494140625,1.84521484375
100719,51.69677734375,198.486328125,75.50048828125,4.11083984375,0.109375,1.60986328125
100720,32.1044921875,163.02490234375,44.189453125,4.5205078125,-0.60205078125,1.4814453125
100721,-20.44677734375,127.13623046875,7.62939453125,4.826171875,-0.998046875,1.47021484375
100722,-84.89990234375,86.60888671875,-30.70068359375,4.90966796875,-0.83544921875,1.427734375
100723,-120.849609375,47.05810546875,-58.7158203125,4.76708984375,-0.30859375,1.37060546875
100724,-123.779296875,5.37109375,-74.64599609375,4.43701171875,0.3955078125,1.3642578125
100725,-98.876953125,-31.31103515625,-77.57568359375,3.9912109375,0.99560546875,1.36669921875
100726,-55.23681640625,-64.697265625,-70.00732421875,3.48876953125,1.33056640625,1.3681640625
100727,-9.82666015625,-87.34130859375,-57.18994140625,3.068359375,1.39013671875,1.3857421875
100728,31.3720703125,-102.72216796875,-41.259765625,2.64990234375,1.2490234375,1.39697265625
100729,58.04443359375,-111.083984375,-26.30615234375,2.3359375,0.9404296875,1.45849609375
100730,72.8759765625,-114.44091796875,-12.39013671875,2.0771484375,0.6064453125,1.5302734375
100731,74.89013671875,-114.92919921875,-2.44140625,1.873046875,0.314453125,1.55224609375
100732,251.64794921875,-257.4462890625,67.07763671875,2.4404296875,3.91357421875,5.83056640625
100733,366.69921875,-227.5390625,106.38427734375,0.88525390625,0.98486328125,0.49560546875
100734,381.2255859375,-268.5546875,92.95654296875,-2.798828125,-0.93701171875,-0.052734375
100735,401.67236328125,-297.42431640625,97.47314453125,-0.2958984375,0.10546875,1.2021484375
100736,342.4072265625,-319.88525390625,127.3193359375,-0.8720703125,-0.287109375,1.78515625
100737,202.33154296875,-339.7216796875,163.0859375,-0.572265625,0.125,1.22021484375
100738,96.8017578125,-359.619140625,188.3544921875,-0.1201171875,0.27783203125,1.60791015625
100739,7.080078125,-355.712890625,193.05419921875,0.21728515625,0.6552734375,1.751953125
100740,-32.28759765625,-348.876953125,183.77685546875,0.31884765625,0.69775390625,1.65966796875
100741,-38.39111328125,-349.365234375,164.36767578125,-0.34423828125,0.93798828125,1.98681640625
100742,-33.99658203125,-339.84375,131.28662109375,-0.11279296875,0.87939453125,1.9609375
100743,-29.84619140625,-333.67919921875,89.53857421875,0.14306640625,0.81689453125,1.98974609375
100744,-27.03857421875,-331.787109375,50.78125,0.3193359375,0.6640625,2.08154296875
100745,-33.50830078125,-329.65087890625,15.7470703125,0.23046875,0.4931640625,1.77197265625
100746,-42.8466796875,-316.46728515625,-3.662109375,0.08837890625,0.23193359375,1.47216796875
100747,-44.43359375,-293.701171875,-9.82666015625,0.03271484375,0.0146484375,1.3486328125
100748,-37.7197265625,-260.92529296875,-8.36181640625,0.13330078125,-0.0927734375,1.37939453125
100749,-28.86962890625,-209.228515625,-3.5400390625,0.20703125,-0.1484375,1.50439453125
100750,-18.37158203125,-157.40966796875,2.8076171875,0.17529296875,-0.14208984375,1.3935546875
100751,-12.14599609375,-111.02294921875,9.1552734375,0.12939453125,-0.0869140625,1.28857421875
100752,-6.16455078125,-80.810546875,12.14599609375,0.1171875,-0.017578125,1.19970703125
100753,-3.662109375,-57.67822265625,10.1318359375,0.12744140625,0.0419921875,1.14404296875
100754,-4.150390625,-42.8466796875,5.43212890625,0.09765625,0.048828125,1.0888671875
100755,-4.7607421875,-35.0341796875,0.30517578125,0.0625,0.04052734375,1.04931640625
100756,-5.859375,-30.94482421875,-3.60107421875,0.0458984375,0.0263671875,1.04833984375
100757,-5.18798828125,-27.16064453125,-4.33349609375,0.05126953125,0.0009765625,1.03662109375
100758,-3.96728515625,-24.10888671875,-3.0517578125,0.05810546875,-0.02001953125,1.037109375
100759,-2.3193359375,-20.56884765625,-0.42724609375,0.06591796875,-0.01416015625,1.041015625
100760,-1.8310546875,-17.15087890625,1.0986328125,0.0693359375,0.00244140625,1.04052734375
100761,-1.5869140625,-14.0380859375,1.5869140625,0.0634765625,0.01171875,1.0302734375
100762,-1.52587890625,-12.20703125,0.732421875,0.0537109375,0.01806640625,1.02783203125
100763,-1.89208984375,-8.36181640625,-1.28173828125,0.107421875,0.0419921875,1.03955078125
100764,0.91552734375,-3.60107421875,-0.3662109375,0.11474609375,-0.00146484375,1.03369140625
100765,-0.30517578125,-0.18310546875,1.8310546875,0.0703125,0.02587890625,1.02490234375
100766,-0.732421875,-0.732421875,1.8310546875,0.01806640625,0.00927734375,1.0185546875
100767,0.8544921875,-2.25830078125,0.8544921875,0.00927734375,-0.01416015625,1.02001953125
100768,1.40380859375,-2.62451171875,0.1220703125,0.03955078125,0.01123046875,1.02294921875
100769,0.9765625,-1.5869140625,0.732421875,0.0458984375,0.0166015625,1.02197265625
100770,0.8544921875,-1.220703125,1.28173828125,0.0419921875,0.015625,1.025390625
100771,0.48828125,-1.15966796875,0.9765625,0.0302734375,0.00927734375,1.021484375
100772,0.79345703125,-2.0751953125,0.732421875,0.02587890625,0.0078125,1.02978515625
100773,1.40380859375,-2.13623046875,1.28173828125,0.0390625,0.0087890625,1.025390625
100774,1.8310546875,-3.0517578125,1.40380859375,0.0283203125,0.01171875,1.02197265625
100775,1.89208984375,-3.5400390625,1.40380859375,0.02783203125,0.00537109375,1.02197265625
100776,2.38037109375,-3.7841796875,1.28173828125,0.0341796875,0.01416015625,1.0283203125
100777,1.8310546875,-4.0283203125,1.52587890625,0.03125,0.0087890625,1.02587890625
100778,1.46484375,-4.21142578125,1.46484375,0.02880859375,0.01171875,1.02490234375
100779,1.89208984375,-4.08935546875,1.52587890625,0.03564453125,0.0078125,1.02490234375
100780,1.953125,-4.45556640625,1.3427734375,0.02734375,0.0068359375,1.03173828125
100781,1.708984375,-4.150390625,1.46484375,0.02783203125,0.013671875,1.0205078125
100782,2.197265625,-3.96728515625,1.220703125,0.0400390625,0.00927734375,1.02294921875
100783,2.01416015625,-4.21142578125,1.15966796875,0.0390625,0.00537109375,1.01806640625
100784,2.44140625,-3.7841796875,1.0986328125,0.02734375,0.001953125,1.0234375
100785,2.74658203125,-3.662109375,1.28173828125,0.03125,0.009765625,1.02197265625
100786,2.44140625,-3.60107421875,1.03759765625,0.037109375,0.00146484375,1.0205078125
100787,2.74658203125,-3.2958984375,0.67138671875,0.03857421875,0.01220703125,1.02490234375
100788,2.5634765625,-2.99072265625,0.79345703125,0.04052734375,0.01123046875,1.0244140625
100789,2.8076171875,-2.86865234375,0.6103515625,0.03955078125,0.005859375,1.0234375
100790,2.685546875,-2.44140625,0.3662109375,0.03857421875,0.00634765625,1.0244140625
100791,2.74658203125,-2.44140625,0.30517578125,0.04150390625,0.0107421875,1.02001953125
100792,2.197265625,-2.25830078125,0.244140625,0.04248046875,0.01513671875,1.0205078125
100793,2.13623046875,-1.77001953125,0.1220703125,0.0390625,0.01220703125,1.0302734375
100794,1.77001953125,-1.5869140625,-0.06103515625,0.041015625,0.01708984375,1.0205078125
100795,1.5869140625,-1.46484375,0.1220703125,0.03857421875,0.01318359375,1.0244140625
100796,1.40380859375,-1.15966796875,0.0,0.04345703125,0.01513671875,1.0185546875
100797,0.9765625,-0.91552734375,-0.30517578125,0.03857421875,0.0126953125,1.02880859375
100798,1.3427734375,-0.6103515625,0.0,0.0400390625,0.01171875,1.02001953125
100799,0.9765625,-0.3662109375,-0.30517578125,0.03662109375,0.0126953125,1.02587890625
100800,1.5869140625,-0.54931640625,-0.54931640625,0.03564453125,0.01513671875,1.0224609375
100801,1.0986328125,-0.18310546875,-0.67138671875,0.0458984375,0.01220703125,1.015625
100802,1.28173828125,0.06103515625,-0.6103515625,0.03857421875,0.01318359375,1.01806640625
100803,1.28173828125,-0.06103515625,-0.54931640625,0.03515625,0.01318359375,1.0224609375
100804,0.54931640625,0.48828125,-0.3662109375,0.0400390625,0.01318359375,1.01953125
100805,1.220703125,0.244140625,-0.54931640625,0.03564453125,0.01220703125,1.02880859375
100806,0.91552734375,0.18310546875,-0.42724609375,0.0361328125,0.01318359375,1.01123046875
100807,0.8544921875,-0.244140625,-0.732421875,0.0322265625,0.009765625,1.021484375
100808,1.0986328125,0.244140625,-0.67138671875,0.037109375,0.01611328125,1.0224609375
100809,1.46484375,0.0,-0.54931640625,0.03369140625,0.01416015625,1.02197265625
100810,1.28173828125,-0.42724609375,-0.54931640625,0.03662109375,0.01904296875,1.01904296875
100811,0.9765625,-0.67138671875,-0.8544921875,0.0322265625,0.01416015625,1.0224609375
100812,1.46484375,-0.91552734375,-1.03759765625,0.03515625,0.01416015625,1.02587890625
100813,1.0986328125,-1.03759765625,-0.9765625,0.0341796875,0.01171875,1.02294921875
100814,1.15966796875,-0.9765625,-1.0986328125,0.0361328125,0.01611328125,1.01953125
100815,1.28173828125,-1.220703125,-1.03759765625,0.04248046875,0.0185546875,1.025390625
100816,0.8544921875,-0.732421875,-0.91552734375,0.041015625,0.02392578125,1.0185546875
100817,0.54931640625,-1.220703125,-0.54931640625,0.033203125,0.0166015625,1.017578125
100818,0.42724609375,-0.79345703125,-0.42724609375,0.0322265625,0.01513671875,1.01953125
100819,0.6103515625,-1.220703125,-0.9765625,0.037109375,0.01318359375,1.0244140625
100820,0.6103515625,-1.28173828125,-0.67138671875,0.03515625,0.01611328125,1.02685546875
100821,0.42724609375,-1.77001953125,-0.732421875,0.03466796875,0.0126953125,1.02099609375
100822,0.8544921875,-2.13623046875,-0.732421875,0.03466796875,0.0107421875,1.03125
100823,1.28173828125,-2.3193359375,0.0,0.03857421875,0.00537109375,1.02978515625
100824,1.708984375,-3.11279296875,-0.3662109375,0.03759765625,0.0234375,1.02734375
100825,0.8544921875,-3.5400390625,0.1220703125,0.04150390625,0.021484375,1.02294921875
100826,1.46484375,-4.2724609375,-0.3662109375,0.03369140625,0.0146484375,1.02978515625
100827,2.0751953125,-5.37109375,0.1220703125,0.02587890625,0.01513671875,1.0341796875
100828,1.40380859375,-6.4697265625,0.18310546875,0.03173828125,0.02001953125,1.02783203125
100829,2.13623046875,-7.99560546875,0.54931640625,0.02978515625,0.015625,1.03857421875
100830,1.953125,-9.033203125,1.0986328125,0.033203125,0.0244140625,1.03369140625
100831,1.15966796875,-10.31494140625,1.52587890625,0.0419921875,0.0263671875,1.03369140625
100832,0.8544921875,-12.26806640625,1.5869140625,0.0361328125,0.02392578125,1.0458984375
100833,-0.6103515625,-14.58740234375,1.953125,0.04150390625,0.0263671875,1.0390625
100834,-2.8076171875,-15.5029296875,1.64794921875,0.044921875,0.02392578125,1.0478515625
100835,-6.7138671875,-19.71435546875,1.89208984375,0.03466796875,0.0302734375,1.0771484375
100836,-14.5263671875,-25.93994140625,2.44140625,0.04833984375,0.00830078125,1.12451171875
100837,-25.69580078125,-32.77587890625,3.23486328125,0.06591796875,0.0029296875,1.20849609375
100838,-37.2314453125,-47.42431640625,0.6103515625,0.08349609375,-0.04052734375,1.30712890625
100839,-49.560546875,-57.12890625,-1.64794921875,0.07080078125,-0.07958984375,1.40673828125
100840,-69.76318359375,-59.38720703125,-4.638671875,-0.0146484375,-0.228515625,1.51416015625
100841,-80.322265625,-58.89892578125,-11.474609375,-0.06494140625,0.18701171875,1.77001953125
100842,-17.4560546875,-84.89990234375,5.9814453125,0.0205078125,0.76220703125,2.1484375
100843,-23.25439453125,-105.3466796875,4.08935546875,0.00634765625,-0.2705078125,1.67236328125
100844,-34.48486328125,-110.04638671875,2.01416015625,0.06005859375,0.10498046875,1.498046875
100845,-27.40478515625,-126.40380859375,9.58251953125,0.05322265625,0.193359375,1.64697265625
100846,-29.541015625,-133.9111328125,7.32421875,0.06640625,-0.060546875,1.62646484375
100847,-30.6396484375,-139.16015625,6.7138671875,0.0673828125,0.0498046875,1.61083984375
100848,-26.79443359375,-148.92578125,8.85009765625,0.08251953125,0.08447265625,1.64111328125
100849,-27.7099609375,-158.63037109375,7.99560546875,0.078125,-0.04052734375,1.6103515625
100850,-31.92138671875,-166.56494140625,6.65283203125,0.06591796875,-0.01904296875,1.6201171875
100851,-33.447265625,-176.513671875,7.2021484375,0.0712890625,0.08642578125,1.68798828125
100852,-34.24072265625,-187.3779296875,7.9345703125,0.05615234375,0.083984375,1.7734375
100853,-37.4755859375,-199.5849609375,9.21630859375,0.06396484375,0.056640625,1.8408203125
100854,-38.02490234375,-212.82958984375,9.3994140625,0.0537109375,0.0390625,1.88818359375
100855,-39.794921875,-227.5390625,9.1552734375,0.05712890625,0.00537109375,1.9326171875
100856,-39.73388671875,-241.943359375,9.033203125,0.0126953125,-0.02294921875,1.9765625
100857,-37.04833984375,-258.6669921875,6.65283203125,-0.00439453125,-0.1279296875,1.9853515625
100858,-37.4755859375,-275.81787109375,3.72314453125,-0.02099609375,-0.19921875,2.0234375
100859,-36.19384765625,-295.41015625,0.0,0.00244140625,-0.1982421875,2.09765625
100860,-34.48486328125,-315.5517578125,-4.94384765625,0.02587890625,-0.2919921875,2.19189453125
100861,-33.935546875,-337.890625,-9.70458984375,0.0732421875,-0.32080078125,2.30078125
100862,-29.23583984375,-362.9150390625,-13.61083984375,-0.04248046875,-0.228515625,2.4091796875
100863,-23.13232421875,-386.962890625,-13.73291015625,0.0263671875,-0.0791015625,2.5859375
100864,-15.869140625,-411.376953125,-9.46044921875,0.00927734375,0.0966796875,2.892578125
100865,-13.48876953125,-429.0771484375,-2.8076171875,0.07666015625,0.09423828125,3.1181640625
100866,-16.66259765625,-446.8994140625,-1.28173828125,-0.02099609375,-0.29296875,2.9716796875
100867,-16.90673828125,-456.60400390625,-5.9814453125,0.171875,-0.64404296875,3.07373046875
100868,-17.9443359375,-463.68408203125,-12.02392578125,0.39599609375,-0.5556640625,3.15869140625
100869,-37.59765625,-466.6748046875,-16.66259765625,0.376953125,-0.58837890625,3.18994140625
100870,-49.86572265625,-471.3134765625,-27.34375,0.39208984375,-0.26513671875,3.21728515625
100871,-26.55029296875,-478.3935546875,-27.77099609375,0.107421875,0.251953125,3.06787109375
100872,-7.32421875,-482.48291015625,-20.3857421875,-0.07568359375,0.12548828125,3.1123046875
100873,-4.08935546875,-484.43603515625,-19.71435546875,-0.0322265625,-0.12060546875,2.98193359375
100874,-10.498046875,-479.6142578125,-16.78466796875,-0.2685546875,-0.11083984375,2.91162109375
100875,-29.35791015625,-461.0595703125,-15.7470703125,-0.2158203125,-0.111328125,3.18798828125
100876,-38.6962890625,-449.951171875,-18.00537109375,-0.494140625,-0.05224609375,3.2900390625
100877,-38.87939453125,-446.6552734375,-19.287109375,-0.8984375,-0.03369140625,3.23046875
100878,-44.73876953125,-445.86181640625,-23.8037109375,-1.45263671875,-0.185546875,2.8837890625
100879,-49.01123046875,-441.71142578125,-36.19384765625,-1.32080078125,-0.44287109375,2.2587890625
100880,-56.09130859375,-453.06396484375,-67.19970703125,-2.025390625,-0.78857421875,2.27197265625
100881,-54.38232421875,-473.44970703125,-102.4169921875,-2.15478515625,-0.88232421875,0.93798828125
100882,-12.20703125,-393.49365234375,-124.81689453125,-2.2763671875,-0.77978515625,-0.84228515625
100883,-13.48876953125,-252.01416015625,-146.66748046875,-2.32958984375,-0.48974609375,-0.7431640625
100884,-12.451171875,-149.169921875,-157.3486328125,-2.2763671875,-0.19482421875,0.82568359375
100885,-4.69970703125,-71.77734375,-153.3203125,-2.05615234375,0.10986328125,1.2060546875
100886,15.44189453125,0.67138671875,-141.90673828125,-1.8779296875,0.32421875,1.08642578125
100887,47.119140625,56.396484375,-127.197265625,-1.89892578125,0.40234375,0.87744140625
100888,78.857421875,94.42138671875,-113.76953125,-1.806640625,0.3564453125,0.70751953125
100889,107.60498046875,122.314453125,-100.28076171875,-1.5146484375,0.2470703125,0.70849609375
100890,126.28173828125,134.521484375,-88.623046875,-1.2060546875,0.12255859375,0.79345703125
100891,138.48876953125,138.48876953125,-78.9794921875,-1.03857421875,-0.025390625,0.79443359375
100892,143.12744140625,138.97705078125,-72.20458984375,-0.97705078125,-0.17529296875,0.7138671875
100893,141.66259765625,137.63427734375,-67.3828125,-0.9462890625,-0.32763671875,0.56884765625
100894,133.4228515625,137.20703125,-64.14794921875,-0.90771484375,-0.447265625,0.46240234375
100895,115.6005859375,137.87841796875,-61.34033203125,-0.88525390625,-0.53515625,0.423828125
100896,94.482421875,139.16015625,-58.77685546875,-0.859375,-0.58349609375,0.4287109375
100897,66.71142578125,141.845703125,-55.96923828125,-0.83984375,-0.59375,0.41845703125
100898,41.8701171875,145.263671875,-52.1240234375,-0.83837890625,-0.5576171875,0.42041015625
100899,17.08984375,151.67236328125,-46.9970703125,-0.85400390625,-0.48388671875,0.4052734375
100900,0.42724609375,158.87451171875,-40.83251953125,-0.849609375,-0.38134765625,0.41650390625
100901,-10.7421875,168.0908203125,-32.71484375,-0.84619140625,-0.2578125,0.4453125
100902,-13.18359375,178.22265625,-22.94921875,-0.828125,-0.1162109375,0.4677734375
100903,-9.1552734375,190.5517578125,-12.20703125,-0.8115234375,-0.0068359375,0.490234375
100904,-0.06103515625,202.7587890625,-1.3427734375,-0.798828125,0.0517578125,0.51220703125
100905,12.51220703125,218.07861328125,10.009765625,-0.79052734375,0.076171875,0.52783203125
100906,23.681640625,234.2529296875,19.83642578125,-0.79052734375,0.05029296875,0.57568359375
100907,33.87451171875,253.47900390625,28.3203125,-0.80029296875,0.00146484375,0.59521484375
100908,41.015625,273.37646484375,35.2783203125,-0.80322265625,-0.0673828125,0.63818359375
100909,43.27392578125,295.71533203125,40.4052734375,-0.806640625,-0.14404296875,0.70166015625
100910,42.1142578125,316.40625,43.76220703125,-0.80029296875,-0.2265625,0.77587890625
100911,35.21728515625,337.40234375,45.0439453125,-0.79931640625,-0.28076171875,0.841796875
100912,27.03857421875,357.666015625,45.83740234375,-0.77685546875,-0.3310546875,0.9248046875
100913,17.76123046875,373.71826171875,46.0205078125,-0.728515625,-0.34814453125,1.01708984375
100914,8.9111328125,386.3525390625,45.34912109375,-0.67138671875,-0.34619140625,1.119140625
100915,1.40380859375,395.01953125,44.49462890625,-0.60546875,-0.3193359375,1.20654296875
100916,-3.72314453125,399.4140625,43.3349609375,-0.52392578125,-0.28662109375,1.29248046875
100917,-6.77490234375,399.96337890625,42.05322265625,-0.46240234375,-0.2578125,1.36962890625
100918,-7.99560546875,398.98681640625,40.22216796875,-0.40234375,-0.2451171875,1.4384765625
100919,-8.30078125,397.216796875,37.353515625,-0.3818359375,-0.23876953125,1.470703125
100920,-7.87353515625,396.3623046875,32.16552734375,-0.3515625,-0.2490234375,1.50048828125
100921,-7.8125,395.5078125,26.67236328125,-0.32275390625,-0.2646484375,1.556640625
100922,-9.521484375,394.8974609375,19.59228515625,-0.29150390625,-0.2841796875,1.6376953125
100923,-12.20703125,395.69091796875,12.451171875,-0.267578125,-0.29443359375,1.70703125
100924,-16.7236328125,396.54541015625,3.72314453125,-0.22119140625,-0.29931640625,1.77978515625
100925,-21.1181640625,396.54541015625,-5.31005859375,-0.1259765625,-0.30078125,1.8974609375
100926,-26.30615234375,392.4560546875,-13.73291015625,0.00048828125,-0.3125,2.0302734375
100927,-29.47998046875,386.41357421875,-22.3388671875,0.08056640625,-0.3291015625,2.1259765625
100928,-33.3251953125,377.5634765625,-32.470703125,0.16162109375,-0.33837890625,2.234375
100929,-36.376953125,367.3095703125,-43.15185546875,0.224609375,-0.35693359375,2.35009765625
100930,-39.24560546875,354.1259765625,-55.2978515625,0.2861328125,-0.37255859375,2.46533203125
100931,-43.39599609375,340.14892578125,-67.81005859375,0.32568359375,-0.38037109375,2.5927734375
100932,-48.76708984375,323.3642578125,-80.4443359375,0.3603515625,-0.38427734375,2.7529296875
100933,-53.40576171875,309.2041015625,-92.34619140625,0.38818359375,-0.37060546875,2.900390625
100934,-57.67822265625,299.1943359375,-104.1259765625,0.3818359375,-0.32373046875,3.01416015625
100935,-62.5,299.49951171875,-114.501953125,0.35009765625,-0.28759765625,3.0634765625
100936,-64.8193359375,308.28857421875,-124.267578125,0.32763671875,-0.23974609375,3.0595703125
100937,-67.626953125,321.4111328125,-131.9580078125,0.3837890625,-0.1865234375,3.11328125
100938,-70.3125,333.251953125,-135.68115234375,0.46630859375,-0.1591796875,3.2236328125
100939,-76.11083984375,343.68896484375,-135.7421875,0.6279296875,-0.1484375,3.32275390625
100940,-83.251953125,350.341796875,-132.26318359375,0.79833984375,-0.1396484375,3.3447265625
100941,-92.7734375,354.98046875,-124.20654296875,0.9794921875,-0.12744140625,3.3115234375
100942,-101.50146484375,358.0322265625,-113.83056640625,1.1318359375,-0.12646484375,3.283203125
100943,-109.19189453125,360.4736328125,-99.91455078125,1.3193359375,-0.14990234375,3.20458984375
100944,-115.90576171875,362.48779296875,-85.8154296875,1.50439453125,-0.18310546875,3.10009765625
100945,-122.55859375,363.6474609375,-70.73974609375,1.67822265625,-0.255859375,3.0029296875
100946,-129.638671875,361.328125,-57.55615234375,1.80615234375,-0.33837890625,2.95751953125
100947,-137.451171875,354.8583984375,-44.73876953125,1.951171875,-0.453125,2.880859375
100948,-150.634765625,345.39794921875,-33.3251953125,2.11328125,-0.38818359375,2.4677734375
100949,-202.7587890625,330.01708984375,-15.380859375,1.85791015625,0.05224609375,2.232421875
100950,-277.89306640625,319.4580078125,7.8125,1.9287109375,0.68701171875,2.10888671875
100951,-316.22314453125,305.2978515625,39.48974609375,2.31884765625,1.50732421875,2.09521484375
100952,-292.724609375,294.61669921875,70.80078125,2.68017578125,2.14501953125,2.138671875
100953,-204.77294921875,282.1044921875,100.64697265625,3.01123046875,2.46044921875,2.0966796875
100954,-86.85302734375,266.6015625,120.30029296875,3.27880859375,2.330078125,1.93017578125
100955,27.7099609375,246.39892578125,129.5166015625,3.56494140625,1.7490234375,1.7255859375
100956,89.84375,222.10693359375,126.52587890625,3.9638671875,0.8818359375,1.533203125
100957,99.67041015625,188.41552734375,109.86328125,4.44921875,-0.10009765625,1.37744140625
100958,59.63134765625,149.658203125,80.9326171875,4.7783203125,-0.87109375,1.369140625
100959,-11.65771484375,105.1025390625,42.48046875,4.88232421875,-1.25927734375,1.42822265625
100960,-85.26611328125,55.419921875,2.86865234375,4.73388671875,-0.92578125,1.365234375
100961,-121.64306640625,11.5966796875,-25.0244140625,4.42236328125,-0.26708984375,1.3056640625
100962,-122.9248046875,-28.9306640625,-41.6259765625,3.98779296875,0.5615234375,1.31494140625
100963,-94.17724609375,-59.87548828125,-45.41015625,3.51318359375,1.26953125,1.337890625
100964,-43.15185546875,-83.49609375,-38.75732421875,3.03125,1.69482421875,1.33203125
100965,8.60595703125,-96.61865234375,-27.2216796875,2.67138671875,1.78076171875,1.32861328125
100966,53.466796875,-101.98974609375,-13.671875,2.3505859375,1.6015625,1.38037109375
100967,118.65234375,-140.13671875,14.2822265625,2.39599609375,2.16015625,1.81884765625
100968,388.00048828125,-252.50244140625,90.63720703125,2.0234375,2.72119140625,3.4130859375
100969,399.4140625,-256.16455078125,68.54248046875,-2.63916015625,-1.2265625,-0.75
100970,400.93994140625,-288.9404296875,60.48583984375,-0.49755859375,0.25341796875,0.11962890625
100971,346.37451171875,-309.63134765625,80.74951171875,-1.07568359375,-0.1201171875,2.28125
100972,211.3037109375,-337.70751953125,111.38916015625,-0.79296875,0.25830078125,1.0341796875
100973,114.1357421875,-362.85400390625,130.615234375,-0.18896484375,0.2783203125,1.63671875
100974,21.42333984375,-358.3984375,133.544921875,0.2958984375,0.66552734375,1.7607421875
100975,-9.09423828125,-351.9287109375,117.919921875,0.5087890625,0.8173828125,1.783203125
100976,-26.06201171875,-344.7265625,95.947265625,-0.154296875,0.76953125,2.33837890625
100977,-29.1748046875,-334.8388671875,67.5048828125,-0.16162109375,0.82568359375,2.0126953125
100978,-34.5458984375,-327.0263671875,29.47998046875,-0.03515625,0.8125,1.8056640625
100979,-41.56494140625,-320.068359375,-4.150390625,0.14697265625,0.59033203125,1.8349609375
100980,-46.32568359375,-319.9462890625,-28.4423828125,0.12255859375,0.265625,1.83837890625
100981,-48.64501953125,-311.5234375,-37.59765625,0.03076171875,0.0380859375,1.50341796875
100982,-48.095703125,-293.701171875,-31.92138671875,0.00732421875,-0.15869140625,1.33203125
100983,-37.4755859375,-269.4091796875,-19.71435546875,0.05517578125,-0.23681640625,1.3271484375
100984,-24.4140625,-236.51123046875,-8.7890625,0.15283203125,-0.20361328125,1.35693359375
100985,-12.26806640625,-189.453125,0.18310546875,0.20263671875,-0.126953125,1.42626953125
100986,-7.38525390625,-142.9443359375,5.0048828125,0.16015625,-0.0634765625,1.34423828125
100987,-6.2255859375,-102.5390625,5.43212890625,0.13134765625,0.013671875,1.2578125
100988,-4.39453125,-77.392578125,2.5634765625,0.10986328125,0.02294921875,1.15966796875
100989,-2.74658203125,-56.2744140625,-2.0751953125,0.1064453125,0.03369140625,1.1318359375
100990,-2.74658203125,-43.88427734375,-4.5166015625,0.076171875,0.0166015625,1.0849609375
100991,-2.3193359375,-36.865234375,-4.57763671875,0.07470703125,0.0048828125,1.05810546875
100992,-1.77001953125,-30.94482421875,-3.35693359375,0.07275390625,-0.00341796875,1.04150390625
100993,-0.3662109375,-26.18408203125,-1.46484375,0.076171875,-0.0048828125,1.04638671875
100994,0.54931640625,-21.78955078125,0.42724609375,0.08349609375,0.01318359375,1.04296875
100995,-0.1220703125,-17.4560546875,2.0751953125,0.08154296875,0.0146484375,1.03173828125
100996,-0.79345703125,-14.7705078125,2.01416015625,0.06005859375,0.0107421875,1.03125
100997,-0.9765625,-13.427734375,1.15966796875,0.05517578125,0.01611328125,1.03076171875
100998,-0.91552734375,-8.30078125,-1.3427734375,0.11279296875,0.01611328125,1.03662109375
100999,2.01416015625,-2.50244140625,0.8544921875,0.12646484375,0.025390625,1.04345703125
101000,0.54931640625,-0.1220703125,2.25830078125,0.064453125,0.04052734375,1.029296875
101001,-1.220703125,-1.15966796875,2.50244140625,0.015625,0.01708984375,1.0205078125
101002,0.0,-2.5634765625,1.15966796875,0.0185546875,-0.0126953125,1.01904296875
101003,0.67138671875,-2.3193359375,1.15966796875,0.05810546875,0.013671875,1.02685546875
101004,0.06103515625,-1.46484375,1.8310546875,0.052734375,0.0166015625,1.037109375
101005,0.06103515625,-1.03759765625,1.953125,0.041015625,0.00927734375,1.02392578125
101006,-0.30517578125,-1.5869140625,1.64794921875,0.03759765625,0.01025390625,1.0185546875
101007,-0.30517578125,-2.0751953125,1.15966796875,0.037109375,0.01123046875,1.02490234375
101008,-0.244140625,-1.77001953125,1.3427734375,0.03955078125,0.009765625,1.02880859375
101009,-0.18310546875,-2.86865234375,1.8310546875,0.037109375,0.0126953125,1.02783203125
101010,-0.1220703125,-3.41796875,1.77001953125,0.03515625,0.01025390625,1.02490234375
101011,0.18310546875,-3.47900390625,1.40380859375,0.03955078125,0.00439453125,1.0224609375
101012,0.3662109375,-3.7841796875,1.64794921875,0.04150390625,0.01513671875,1.0234375
101013,0.3662109375,-3.72314453125,1.77001953125,0.0361328125,0.0126953125,1.02001953125
101014,0.1220703125,-3.60107421875,1.40380859375,0.0322265625,0.01220703125,1.0185546875
101015,0.54931640625,-3.72314453125,1.3427734375,0.041015625,0.01171875,1.021484375
101016,0.6103515625,-3.84521484375,1.64794921875,0.044921875,0.00830078125,1.02197265625
101017,1.28173828125,-3.662109375,1.46484375,0.0390625,0.00830078125,1.02099609375
101018,1.52587890625,-3.7841796875,1.220703125,0.04150390625,0.00537109375,1.025390625
101019,2.5634765625,-3.47900390625,0.732421875,0.04052734375,0.0126953125,1.02587890625
101020,1.89208984375,-3.23486328125,0.6103515625,0.03857421875,0.0048828125,1.02294921875
101021,1.89208984375,-3.173828125,0.79345703125,0.0458984375,0.01220703125,1.02197265625
101022,2.44140625,-2.50244140625,0.732421875,0.0458984375,0.0107421875,1.02392578125
101023,2.197265625,-2.3193359375,0.67138671875,0.04150390625,0.00927734375,1.02392578125
101024,2.197265625,-2.25830078125,0.6103515625,0.04833984375,0.0029296875,1.02099609375
101025,2.197265625,-2.197265625,0.1220703125,0.04443359375,0.01220703125,1.01416015625
101026,2.38037109375,-2.197265625,0.54931640625,0.04541015625,0.0185546875,1.02099609375
101027,2.01416015625,-1.46484375,0.1220703125,0.0498046875,0.01513671875,1.0185546875
101028,1.708984375,-1.5869140625,0.3662109375,0.0439453125,0.01708984375,1.01806640625
101029,1.77001953125,-1.40380859375,0.244140625,0.04931640625,0.02001953125,1.01318359375
101030,1.708984375,-1.40380859375,-0.06103515625,0.04443359375,0.01025390625,1.02392578125
101031,1.40380859375,-1.03759765625,-0.42724609375,0.04443359375,0.01513671875,1.01806640625
101032,1.46484375,-1.0986328125,0.06103515625,0.044921875,0.0146484375,1.0166015625
101033,1.3427734375,-0.732421875,-0.06103515625,0.04296875,0.01416015625,1.02099609375
101034,0.9765625,-0.91552734375,-0.18310546875,0.03662109375,0.0126953125,1.017578125
101035,1.0986328125,-0.67138671875,-0.3662109375,0.04443359375,0.01513671875,1.02294921875
101036,1.220703125,-0.91552734375,-0.42724609375,0.04345703125,0.01416015625,1.02734375
101037,1.5869140625,-0.67138671875,-0.54931640625,0.04248046875,0.017578125,1.01416015625
101038,1.52587890625,-0.54931640625,-0.732421875,0.0400390625,0.0107421875,1.02197265625
101039,1.46484375,-0.30517578125,-0.6103515625,0.04443359375,0.01025390625,1.02001953125
101040,1.52587890625,0.0,-0.67138671875,0.04150390625,0.0185546875,1.0185546875
101041,1.15966796875,-0.1220703125,-0.54931640625,0.04150390625,0.01220703125,1.017578125
101042,1.5869140625,-0.18310546875,-0.9765625,0.044921875,0.01708984375,1.02099609375
101043,1.28173828125,-0.06103515625,-0.6103515625,0.0419921875,0.02197265625,1.01611328125
101044,1.8310546875,-0.3662109375,-1.03759765625,0.04736328125,0.01220703125,1.0166015625
101045,1.220703125,-0.18310546875,-0.91552734375,0.04052734375,0.01611328125,1.02685546875
101046,1.28173828125,-0.79345703125,-0.91552734375,0.0419921875,0.01611328125,1.01904296875
101047,1.52587890625,-0.9765625,-0.6103515625,0.04248046875,0.0126953125,1.0185546875
101048,1.40380859375,-1.220703125,-0.67138671875,0.04052734375,0.01806640625,1.0185546875
101049,1.28173828125,-1.52587890625,-0.48828125,0.0458984375,0.015625,1.02783203125
101050,1.03759765625,-1.40380859375,-0.54931640625,0.04248046875,0.02392578125,1.02001953125
101051,0.48828125,-1.5869140625,-0.3662109375,0.0439453125,0.02392578125,1.0146484375
101052,0.9765625,-1.40380859375,-0.3662109375,0.04638671875,0.02392578125,1.0244140625
101053,1.220703125,-1.64794921875,-0.244140625,0.03759765625,0.02001953125,1.02294921875
101054,0.91552734375,-2.44140625,-0.30517578125,0.041015625,0.0166015625,1.02197265625
101055,0.42724609375,-2.74658203125,-0.244140625,0.04736328125,0.01416015625,1.0263671875
101056,0.79345703125,-3.41796875,0.0,0.0458984375,0.0234375,1.025390625
101057,0.79345703125,-3.60107421875,0.0,0.0439453125,0.00927734375,1.02978515625
101058,1.0986328125,-4.638671875,0.244140625,0.04345703125,0.01025390625,1.03076171875
101059,1.8310546875,-5.18798828125,0.18310546875,0.04296875,0.01806640625,1.02783203125
101060,1.3427734375,-6.103515625,0.1220703125,0.0458984375,0.0166015625,1.029296875
101061,1.52587890625,-6.9580078125,0.42724609375,0.04541015625,0.02294921875,1.033203125
101062,1.40380859375,-7.75146484375,0.6103515625,0.0439453125,0.013671875,1.03466796875
101063,0.54931640625,-9.09423828125,0.79345703125,0.037109375,0.0400390625,1.0361328125
101064,0.0,-11.53564453125,0.732421875,0.04296875,0.0087890625,1.03466796875
101065,-0.732421875,-12.8173828125,0.48828125,0.03955078125,0.01318359375,1.04443359375
101066,-2.197265625,-15.0146484375,0.30517578125,0.0458984375,0.0126953125,1.0439453125
101067,-5.31005859375,-17.39501953125,-0.48828125,0.03271484375,0.0146484375,1.0732421875
101068,-10.6201171875,-20.263671875,0.1220703125,0.06103515625,0.0302734375,1.08447265625
101069,-19.22607421875,-26.7333984375,1.220703125,0.08642578125,0.02685546875,1.14697265625
101070,-30.76171875,-38.02490234375,1.0986328125,0.068359375,0.0126953125,1.267578125
101071,-39.85595703125,-45.654296875,-0.91552734375,0.0517578125,-0.03369140625,1.24755859375
101072,-49.37744140625,-49.01123046875,-2.74658203125,0.0810546875,-0.091796875,1.3232421875
101073,-67.2607421875,-53.7109375,-5.37109375,-0.01708984375,-0.2421875,1.43115234375
101074,-70.6787109375,-58.4716796875,-7.99560546875,0.11767578125,0.099609375,1.59130859375
101075,-20.20263671875,-79.40673828125,2.74658203125,0.12646484375,0.533203125,1.82177734375
101076,-24.84130859375,-96.86279296875,4.150390625,0.0009765625,-0.2060546875,1.63671875
101077,-36.43798828125,-106.8115234375,3.0517578125,0.08056640625,0.0908203125,1.4228515625
101078,-28.9306640625,-114.07470703125,7.568359375,0.1123046875,0.20947265625,1.6220703125
101079,-31.92138671875,-121.27685546875,8.6669921875,0.06396484375,-0.0048828125,1.57958984375
101080,-35.888671875,-128.0517578125,8.60595703125,0.0908203125,0.09619140625,1.59716796875
101081,-32.65380859375,-137.26806640625,11.1083984375,0.078125,0.13330078125,1.6162109375
101082,-33.447265625,-145.3857421875,11.962890625,0.07470703125,-0.0068359375,1.60498046875
101083,-37.2314453125,-154.052734375,10.1318359375,0.0849609375,-0.00927734375,1.5986328125
101084,-36.80419921875,-162.90283203125,10.25390625,0.087890625,0.046875,1.6064453125
101085,-36.19384765625,-172.91259765625,9.94873046875,0.08642578125,-0.0263671875,1.63427734375
101086,-37.109375,-181.21337890625,8.4228515625,0.08544921875,-0.037109375,1.6484375
101087,-38.6962890625,-192.07763671875,7.50732421875,0.072265625,-0.00634765625,1.73095703125
101088,-37.65869140625,-204.345703125,7.14111328125,0.09033203125,0.0,1.82373046875
101089,-37.4755859375,-217.7734375,7.8125,0.078125,-0.01123046875,1.8740234375
101090,-36.56005859375,-231.99462890625,7.62939453125,0.0498046875,-0.01806640625,1.96533203125
101091,-33.935546875,-248.10791015625,7.62939453125,0.0400390625,-0.02001953125,2.06689453125
101092,-32.71484375,-265.380859375,6.8359375,0.0234375,-0.09521484375,2.06103515625
101093,-32.77587890625,-285.09521484375,3.72314453125,0.01171875,-0.17578125,2.13671875
101094,-33.38623046875,-304.99267578125,-0.244140625,0.06640625,-0.189453125,2.16064453125
101095,-28.80859375,-328.18603515625,-3.60107421875,0.0595703125,-0.2548828125,2.28369140625
101096,-21.728515625,-349.609375,-7.99560546875,0.005859375,-0.33154296875,2.4208984375
101097,-13.36669921875,-374.69482421875,-10.8642578125,0.0673828125,-0.3369140625,2.62646484375
101098,-6.7138671875,-395.6298828125,-11.65771484375,0.00830078125,-0.18310546875,2.8447265625
101099,0.8544921875,-416.8701171875,-8.97216796875,0.09375,-0.107421875,3.06982421875
101100,-3.0517578125,-436.767578125,-8.1787109375,0.05419921875,-0.25537109375,3.0869140625
101101,-0.732421875,-451.59912109375,-10.55908203125,0.18994140625,-0.37890625,3.25390625
101102,-2.01416015625,-461.24267578125,-12.6953125,0.2509765625,-0.49462890625,3.271484375
101103,-17.7001953125,-470.27587890625,-18.06640625,0.38427734375,-0.65283203125,3.33154296875
101104,-33.0810546875,-478.8818359375,-27.7099609375,0.30859375,-0.42529296875,3.26611328125
101105,-18.24951171875,-486.02294921875,-29.84619140625,0.0986328125,0.1962890625,3.13525390625
101106,-2.62451171875,-490.1123046875,-22.15576171875,-0.06103515625,0.28369140625,3.11279296875
101107,-1.0986328125,-496.76513671875,-17.51708984375,0.05908203125,0.173828125,2.97607421875
101108,-5.37109375,-500.79345703125,-12.3291015625,-0.14990234375,0.2861328125,2.94287109375
101109,-6.7138671875,-488.34228515625,-6.89697265625,-0.23779296875,0.23486328125,3.15771484375
101110,-6.591796875,-480.04150390625,-4.5166015625,-0.50830078125,0.22705078125,3.3525390625
101111,-0.3662109375,-480.46875,-2.5634765625,-0.88330078125,0.16748046875,3.279296875
101112,4.94384765625,-480.3466796875,-2.0751953125,-1.310546875,-0.0419921875,2.99951171875
101113,2.01416015625,-481.01806640625,-6.2255859375,-1.462890625,-0.36572265625,2.47607421875
101114,-7.99560546875,-490.8447265625,-21.05712890625,-1.6005859375,-0.69384765625,2.6884765625
101115,-26.91650390625,-514.7705078125,-51.33056640625,-2.2041015625,-0.93359375,2.32470703125
101116,-32.1044921875,-504.638671875,-83.3740234375,-2.30517578125,-1.1279296875,0.27685546875
101117,-29.60205078125,-375.244140625,-109.4970703125,-2.4375,-0.8583984375,-1.30712890625
101118,-43.02978515625,-229.79736328125,-131.04248046875,-2.634765625,-0.4814453125,-0.11181640625
101119,-44.25048828125,-121.2158203125,-137.3291015625,-2.5146484375,-0.14794921875,0.73876953125
101120,-28.076171875,-14.46533203125,-133.1787109375,-2.296875,0.1376953125,0.876953125
101121,-2.62451171875,71.10595703125,-123.10791015625,-2.1728515625,0.34716796875,0.8046875
101122,31.6162109375,137.75634765625,-108.3984375,-2.0556640625,0.43310546875,0.67724609375
101123,64.88037109375,178.5888671875,-93.56689453125,-1.82080078125,0.37744140625,0.70703125
101124,94.482421875,203.30810546875,-78.9794921875,-1.45263671875,0.27392578125,0.8359375
101125,113.83056640625,211.24267578125,-66.7724609375,-1.166015625,0.1396484375,0.9072265625
101126,125.67138671875,210.14404296875,-56.33544921875,-1.02685546875,-0.05419921875,0.85693359375
101127,129.08935546875,205.322265625,-48.9501953125,-0.984375,-0.2236328125,0.72900390625
101128,122.61962890625,198.73046875,-43.8232421875,-0.93408203125,-0.40234375,0.60205078125
101129,107.48291015625,193.9697265625,-41.50390625,-0.8828125,-0.568359375,0.544921875
101130,83.8623046875,189.0869140625,-40.22216796875,-0.85009765625,-0.6826171875,0.52880859375
101131,55.17578125,186.34033203125,-39.97802734375,-0.81982421875,-0.716796875,0.5244140625
101132,23.8037109375,185.791015625,-39.6728515625,-0.80517578125,-0.70166015625,0.5341796875
101133,-6.9580078125,187.6220703125,-38.818359375,-0.8046875,-0.61865234375,0.5185546875
101134,-29.72412109375,191.650390625,-36.9873046875,-0.81982421875,-0.50634765625,0.5419921875
101135,-45.22705078125,198.8525390625,-33.935546875,-0.81201171875,-0.34326171875,0.55859375
101136,-50.6591796875,207.1533203125,-29.78515625,-0.80322265625,-0.1640625,0.5830078125
101137,-46.9970703125,217.83447265625,-23.3154296875,-0.7880859375,-0.01123046875,0.60107421875
101138,-37.78076171875,229.00390625,-15.9912109375,-0.77099609375,0.0966796875,0.62841796875
101139,-23.8037109375,242.67578125,-8.4228515625,-0.748046875,0.16650390625,0.6630859375
101140,-9.21630859375,255.43212890625,-1.15966796875,-0.7265625,0.177734375,0.701171875
101141,5.615234375,270.44677734375,5.37109375,-0.70703125,0.1484375,0.74169921875
101142,15.5029296875,284.97314453125,10.68115234375,-0.6982421875,0.09130859375,0.7802734375
101143,21.6064453125,300.29296875,14.34326171875,-0.681640625,0.01953125,0.8310546875
101144,22.15576171875,314.453125,17.02880859375,-0.6748046875,-0.0615234375,0.8837890625
101145,18.12744140625,328.67431640625,17.9443359375,-0.6650390625,-0.1259765625,0.9501953125
101146,10.6201171875,341.61376953125,18.85986328125,-0.64111328125,-0.16064453125,1.0146484375
101147,0.244140625,353.45458984375,19.04296875,-0.6201171875,-0.19677734375,1.0810546875
101148,-9.46044921875,363.525390625,18.85986328125,-0.58642578125,-0.1845703125,1.1572265625
101149,-18.6767578125,372.13134765625,18.61572265625,-0.54833984375,-0.1533203125,1.23876953125
101150,-23.86474609375,378.96728515625,18.06640625,-0.5263671875,-0.1083984375,1.30615234375
101151,-26.91650390625,385.43701171875,18.00537109375,-0.5009765625,-0.0673828125,1.3818359375
101152,-26.9775390625,390.93017578125,17.2119140625,-0.48583984375,-0.0439453125,1.47119140625
101153,-25.5126953125,397.76611328125,15.19775390625,-0.46923828125,-0.02294921875,1.5283203125
101154,-23.25439453125,403.74755859375,12.87841796875,-0.44775390625,-0.01708984375,1.5703125
101155,-21.54541015625,409.72900390625,9.27734375,-0.4306640625,-0.04052734375,1.6630859375
101156,-21.42333984375,416.3818359375,5.2490234375,-0.39208984375,-0.07080078125,1.77685546875
101157,-22.88818359375,421.32568359375,0.0,-0.34326171875,-0.10107421875,1.84228515625
101158,-25.81787109375,424.74365234375,-6.8359375,-0.259765625,-0.14111328125,1.9453125
101159,-30.1513671875,423.7060546875,-13.3056640625,-0.12744140625,-0.1865234375,2.07568359375
101160,-34.48486328125,417.8466796875,-20.93505859375,0.02783203125,-0.21142578125,2.2265625
101161,-37.9638671875,407.28759765625,-28.62548828125,0.14306640625,-0.23388671875,2.3212890625
101162,-42.6025390625,394.10400390625,-37.2314453125,0.22607421875,-0.21484375,2.38818359375
101163,-49.01123046875,380.859375,-44.37255859375,0.32275390625,-0.1884765625,2.47265625
101164,-51.513671875,365.1123046875,-51.7578125,0.4140625,-0.18115234375,2.59912109375
101165,-52.001953125,349.7314453125,-57.6171875,0.4599609375,-0.16015625,2.70751953125
101166,-51.45263671875,332.8857421875,-63.90380859375,0.4814453125,-0.11083984375,2.85205078125
101167,-49.4384765625,319.580078125,-67.3828125,0.48095703125,-0.04736328125,2.99951171875
101168,-44.189453125,313.4765625,-70.12939453125,0.439453125,-0.01318359375,3.1337890625
101169,-38.2080078125,317.0166015625,-70.98388671875,0.38671875,-0.02783203125,3.2021484375
101170,-33.69140625,332.94677734375,-71.10595703125,0.34228515625,-0.0634765625,3.22265625
101171,-31.73828125,353.02734375,-69.15283203125,0.3701171875,-0.08984375,3.220703125
101172,-32.470703125,375.1220703125,-64.0869140625,0.48779296875,-0.14111328125,3.2509765625
101173,-37.7197265625,390.625,-57.373046875,0.6591796875,-0.22119140625,3.3095703125
101174,-46.44775390625,400.5126953125,-48.15673828125,0.9111328125,-0.33203125,3.384765625
101175,-55.35888671875,402.03857421875,-38.2080078125,1.18798828125,-0.4609375,3.380859375
101176,-67.81005859375,397.705078125,-27.77099609375,1.47607421875,-0.59033203125,3.28515625
101177,-82.03125,389.70947265625,-18.85986328125,1.7294921875,-0.71240234375,3.17578125
101178,-100.89111328125,378.23486328125,-11.3525390625,1.99462890625,-0.818359375,3.05419921875
101179,-121.03271484375,365.90576171875,-5.859375,2.25244140625,-0.80419921875,2.76611328125
101180,-157.65380859375,349.54833984375,0.06103515625,2.22705078125,-0.64892578125,2.6083984375
101181,-223.876953125,334.28955078125,5.55419921875,2.12060546875,-0.23193359375,2.4912109375
101182,-265.625,319.03076171875,15.56396484375,2.33642578125,0.4951171875,2.41455078125
101183,-272.0947265625,304.5654296875,31.79931640625,2.5234375,1.20458984375,2.3076171875
101184,-243.2861328125,294.3115234375,48.03466796875,2.7158203125,1.67236328125,2.2080078125
101185,-173.095703125,283.26416015625,62.56103515625,2.97216796875,1.9677734375,2.1044921875
101186,-80.50537109375,268.310546875,71.2890625,3.2119140625,1.8671875,1.9326171875
101187,15.0146484375,246.76513671875,70.1904296875,3.5,1.328125,1.73681640625
101188,70.86181640625,221.3134765625,58.41064453125,3.85205078125,0.65673828125,1.57470703125
101189,84.28955078125,188.96484375,34.72900390625,4.35009765625,-0.1787109375,1.46142578125
101190,55.419921875,152.83203125,3.662109375,4.76318359375,-0.85498046875,1.4443359375
101191,-5.31005859375,107.666015625,-33.26416015625,4.935546875,-1.1015625,1.439453125
101192,-62.5,63.41552734375,-63.65966796875,4.8564453125,-0.8544921875,1.37255859375
101193,-96.435546875,16.17431640625,-84.53369140625,4.537109375,-0.236328125,1.28515625
101194,-97.5341796875,-24.169921875,-91.85791015625,4.1123046875,0.4404296875,1.2802734375
101195,-72.8759765625,-59.08203125,-88.37890625,3.62060546875,0.97998046875,1.2939453125
101196,-34.97314453125,-81.97021484375,-77.69775390625,3.17919921875,1.2421875,1.3125
101197,9.82666015625,-96.25244140625,-61.09619140625,2.7421875,1.30712890625,1.34423828125
101198,45.654296875,-101.1962890625,-43.3349609375,2.40380859375,1.18505859375,1.3984375
101199,102.96630859375,-132.38525390625,-11.53564453125,2.515625,1.69921875,1.6572265625
101200,395.263671875,-287.841796875,77.880859375,3.23388671875,4.17529296875,6.3759765625
101201,396.66748046875,-258.11767578125,68.42041015625,-1.83984375,-1.21435546875,-0.8154296875
101202,385.1318359375,-286.865234375,63.96484375,-0.65966796875,-0.04248046875,-0.39794921875
101203,368.7744140625,-313.8427734375,89.4775390625,-0.705078125,-0.52978515625,2.5302734375
101204,227.4169921875,-331.60400390625,129.0283203125,-1.208984375,0.35546875,1.06494140625
101205,127.9296875,-357.97119140625,160.46142578125,-0.236328125,-0.1650390625,1.5869140625
101206,29.296875,-358.21533203125,176.3916015625,0.14306640625,0.45654296875,1.7177734375
101207,-20.56884765625,-354.736328125,174.1943359375,0.421875,0.73876953125,1.77783203125
101208,-35.64453125,-353.45458984375,160.33935546875,-0.177734375,0.81103515625,2.48974609375
101209,-37.109375,-344.29931640625,137.87841796875,-0.22265625,0.77392578125,1.99853515625
101210,-36.4990234375,-336.48681640625,103.08837890625,0.03369140625,0.79638671875,1.935546875
101211,-34.5458984375,-330.38330078125,65.4296875,0.2978515625,0.74267578125,1.96923828125
101212,-38.6962890625,-327.69775390625,25.93994140625,0.3515625,0.5869140625,1.89208984375
101213,-44.7998046875,-311.4013671875,-0.91552734375,0.19482421875,0.3271484375,1.58984375
101214,-46.0205078125,-286.0107421875,-13.3056640625,0.0302734375,0.07568359375,1.36279296875
101215,-45.22705078125,-256.34765625,-14.46533203125,0.08447265625,-0.0283203125,1.3408203125
101216,-37.04833984375,-214.599609375,-11.04736328125,0.16552734375,-0.12060546875,1.38330078125
101217,-24.7802734375,-165.4052734375,-4.7607421875,0.18310546875,-0.15625,1.4033203125
101218,-16.2353515625,-119.0185546875,3.35693359375,0.12451171875,-0.134765625,1.28173828125
101219,-9.09423828125,-87.21923828125,8.7890625,0.11083984375,-0.08837890625,1.19580078125
101220,-3.662109375,-63.90380859375,11.04736328125,0.11083984375,-0.0146484375,1.14599609375
101221,-1.5869140625,-47.607421875,9.27734375,0.107421875,0.03759765625,1.103515625
101222,-1.77001953125,-36.80419921875,4.69970703125,0.06640625,0.03759765625,1.06689453125
101223,-3.0517578125,-31.79931640625,1.15966796875,0.0546875,0.0390625,1.04345703125
101224,-2.86865234375,-27.9541015625,-1.5869140625,0.04833984375,0.0283203125,1.041015625
101225,-3.90625,-25.390625,-2.8076171875,0.0458984375,0.00341796875,1.03564453125
101226,-2.01416015625,-22.39990234375,-1.5869140625,0.06640625,-0.0126953125,1.0390625
101227,-1.64794921875,-19.04296875,0.6103515625,0.0615234375,-0.00439453125,1.03466796875
101228,-1.0986328125,-15.9912109375,1.77001953125,0.06298828125,0.0029296875,1.03466796875
101229,-0.91552734375,-13.61083984375,1.77001953125,0.05908203125,0.01611328125,1.02490234375
101230,-1.46484375,-11.962890625,1.0986328125,0.05322265625,0.02294921875,1.02880859375
101231,-0.30517578125,-6.65283203125,-0.30517578125,0.08544921875,-0.0458984375,1.03369140625
101232,0.67138671875,-1.46484375,0.6103515625,0.09814453125,0.029296875,1.03271484375
101233,-0.48828125,-0.1220703125,1.708984375,0.0478515625,0.0302734375,1.0263671875
101234,-1.15966796875,-1.77001953125,1.8310546875,0.01171875,0.00048828125,1.0166015625
101235,0.18310546875,-3.0517578125,0.79345703125,0.0283203125,-0.009765625,1.017578125
101236,1.03759765625,-2.62451171875,0.30517578125,0.05517578125,0.01220703125,1.0283203125
101237,0.67138671875,-1.89208984375,1.15966796875,0.0576171875,0.015625,1.02197265625
101238,0.30517578125,-1.64794921875,1.40380859375,0.03857421875,0.0087890625,1.02587890625
101239,0.18310546875,-1.89208984375,1.220703125,0.03515625,0.00634765625,1.0185546875
101240,0.48828125,-2.38037109375,1.15966796875,0.033203125,0.00341796875,1.021484375
101241,0.6103515625,-3.35693359375,1.46484375,0.03369140625,0.00634765625,1.02880859375
101242,0.3662109375,-3.47900390625,1.52587890625,0.03466796875,0.01025390625,1.0263671875
101243,0.67138671875,-4.21142578125,2.01416015625,0.0361328125,0.013671875,1.0283203125
101244,1.220703125,-5.0048828125,1.64794921875,0.0341796875,0.00390625,1.021484375
101245,0.732421875,-4.57763671875,1.77001953125,0.03955078125,0.0068359375,1.03125
101246,1.40380859375,-4.69970703125,1.708984375,0.0361328125,0.01025390625,1.025390625
101247,1.0986328125,-4.39453125,1.64794921875,0.04052734375,0.00927734375,1.0283203125
101248,1.3427734375,-4.39453125,1.40380859375,0.0361328125,-0.0029296875,1.021484375
101249,1.64794921875,-4.39453125,1.46484375,0.03662109375,0.00244140625,1.0263671875
101250,1.8310546875,-4.45556640625,0.79345703125,0.04248046875,0.01025390625,1.01708984375
101251,2.25830078125,-4.0283203125,1.03759765625,0.044921875,0.00927734375,1.02490234375
101252,1.8310546875,-4.39453125,0.9765625,0.03857421875,0.0029296875,1.0205078125
101253,2.44140625,-3.7841796875,0.79345703125,0.0419921875,0.01123046875,1.0263671875
101254,2.685546875,-3.72314453125,0.54931640625,0.0400390625,0.00927734375,1.0205078125
101255,2.0751953125,-3.5400390625,0.6103515625,0.04296875,0.00732421875,1.01953125
101256,2.86865234375,-3.47900390625,0.48828125,0.03759765625,0.0068359375,1.0234375
101257,2.5634765625,-2.86865234375,0.48828125,0.037109375,0.01318359375,1.0263671875
101258,2.3193359375,-2.25830078125,0.06103515625,0.04296875,0.0087890625,1.02001953125
101259,2.38037109375,-2.5634765625,0.1220703125,0.0419921875,0.01220703125,1.021484375
101260,1.46484375,-2.197265625,-0.06103515625,0.0419921875,0.01953125,1.01611328125
101261,1.40380859375,-2.01416015625,-0.06103515625,0.0419921875,0.0146484375,1.025390625
101262,1.28173828125,-1.77001953125,0.244140625,0.03662109375,0.0126953125,1.01611328125
101263,1.03759765625,-1.3427734375,0.06103515625,0.04541015625,0.0146484375,1.021484375
101264,1.15966796875,-1.28173828125,-0.18310546875,0.04296875,0.01123046875,1.01611328125
101265,0.8544921875,-0.9765625,-0.42724609375,0.0400390625,0.01513671875,1.015625
101266,1.3427734375,-0.54931640625,-0.3662109375,0.041015625,0.013671875,1.02294921875
101267,1.28173828125,-0.732421875,-0.48828125,0.04296875,0.00830078125,1.02099609375
101268,1.52587890625,-0.54931640625,-0.732421875,0.0478515625,0.013671875,1.0205078125
101269,1.46484375,-0.6103515625,-0.48828125,0.03662109375,0.01513671875,1.0224609375
101270,1.220703125,-0.30517578125,-0.8544921875,0.04736328125,0.0146484375,1.01806640625
101271,1.220703125,-0.48828125,-0.67138671875,0.037109375,0.01171875,1.0185546875
101272,1.28173828125,-0.6103515625,-0.732421875,0.037109375,0.015625,1.0283203125
101273,0.54931640625,-0.54931640625,-0.732421875,0.0458984375,0.013671875,1.017578125
101274,1.220703125,-0.42724609375,-0.67138671875,0.04638671875,0.01708984375,1.0185546875
101275,0.6103515625,-0.48828125,-0.67138671875,0.041015625,0.01318359375,1.0234375
101276,0.9765625,-0.54931640625,-0.54931640625,0.044921875,0.01806640625,1.02294921875
101277,0.67138671875,-0.6103515625,-0.732421875,0.03662109375,0.01220703125,1.0224609375
101278,0.732421875,-0.79345703125,-0.9765625,0.0400390625,0.01220703125,1.02197265625
101279,1.0986328125,-0.9765625,-0.9765625,0.04150390625,0.00732421875,1.01904296875
101280,1.03759765625,-1.220703125,-0.8544921875,0.04931640625,0.00927734375,1.02392578125
101281,1.40380859375,-1.28173828125,-0.8544921875,0.0419921875,0.0146484375,1.021484375
101282,1.40380859375,-1.46484375,-0.67138671875,0.04296875,0.01025390625,1.01220703125
101283,1.52587890625,-1.3427734375,-0.8544921875,0.04248046875,0.015625,1.021484375
101284,1.40380859375,-1.220703125,-1.03759765625,0.04541015625,0.01708984375,1.01611328125
101285,1.89208984375,-1.5869140625,-0.91552734375,0.0439453125,0.017578125,1.0283203125
101286,1.5869140625,-0.91552734375,-0.9765625,0.05029296875,0.01123046875,1.01953125
101287,1.64794921875,-1.0986328125,-0.732421875,0.04150390625,0.021484375,1.0224609375
101288,1.15966796875,-1.708984375,-0.67138671875,0.0361328125,0.02294921875,1.02099609375
101289,1.03759765625,-2.0751953125,-0.6103515625,0.0419921875,0.02490234375,1.0263671875
101290,0.732421875,-2.99072265625,-0.42724609375,0.03857421875,0.01318359375,1.02783203125
101291,0.91552734375,-3.23486328125,-0.244140625,0.04345703125,0.02294921875,1.0234375
101292,0.91552734375,-4.150390625,0.244140625,0.0419921875,0.013671875,1.0322265625
101293,0.79345703125,-4.8828125,0.1220703125,0.0390625,0.0107421875,1.0341796875
101294,1.0986328125,-6.28662109375,1.0986328125,0.03466796875,0.01806640625,1.03076171875
101295,1.64794921875,-7.14111328125,0.732421875,0.04296875,0.02294921875,1.0341796875
101296,0.8544921875,-9.09423828125,0.91552734375,0.03369140625,0.0185546875,1.03369140625
101297,0.79345703125,-10.80322265625,1.77001953125,0.05419921875,0.01806640625,1.041015625
101298,0.30517578125,-12.8173828125,1.64794921875,0.02978515625,0.0087890625,1.044921875
101299,-0.79345703125,-14.09912109375,1.15966796875,0.041015625,0.0224609375,1.041015625
101300,-2.01416015625,-15.869140625,0.8544921875,0.04736328125,0.0322265625,1.0537109375
101301,-6.89697265625,-19.1650390625,0.91552734375,0.04443359375,0.0166015625,1.07666015625
101302,-14.0380859375,-23.86474609375,1.46484375,0.05615234375,0.017578125,1.13818359375
101303,-22.94921875,-33.75244140625,2.9296875,0.06884765625,0.0087890625,1.15966796875
101304,-34.66796875,-41.015625,1.0986328125,0.0751953125,-0.02734375,1.2431640625
101305,-45.8984375,-49.31640625,-1.64794921875,0.05517578125,-0.0751953125,1.30078125
101306,-60.05859375,-52.24609375,-4.57763671875,0.009765625,-0.20556640625,1.3701171875
101307,-69.64111328125,-48.095703125,-8.85009765625,0.00927734375,-0.087890625,1.580078125
101308,-27.4658203125,-66.5283203125,1.5869140625,0.09228515625,0.79638671875,1.97021484375
101309,-15.2587890625,-88.623046875,6.7138671875,0.0478515625,-0.21728515625,1.69140625
101310,-31.3720703125,-94.3603515625,2.01416015625,0.05126953125,0.017578125,1.3486328125
101311,-25.81787109375,-104.55322265625,7.62939453125,0.08935546875,0.23828125,1.5595703125
101312,-25.146484375,-114.44091796875,8.30078125,0.0859375,-0.0390625,1.56884765625
101313,-29.60205078125,-119.62890625,6.04248046875,0.0673828125,0.00634765625,1.57568359375
101314,-24.169921875,-128.84521484375,7.8125,0.08154296875,0.0927734375,1.59765625
101315,-22.64404296875,-138.0615234375,7.87353515625,0.0849609375,-0.029296875,1.59423828125
101316,-24.96337890625,-146.42333984375,6.53076171875,0.08154296875,-0.0419921875,1.58935546875
101317,-24.2919921875,-155.33447265625,6.103515625,0.080078125,0.00537109375,1.59814453125
101318,-24.658203125,-164.55078125,5.4931640625,0.09716796875,-0.02587890625,1.61572265625
101319,-25.57373046875,-173.27880859375,4.5166015625,0.08740234375,-0.01220703125,1.650390625
101320,-28.076171875,-184.08203125,5.0048828125,0.0771484375,0.07177734375,1.7490234375
101321,-27.83203125,-196.10595703125,6.2255859375,0.087890625,0.0634765625,1.8369140625
101322,-29.9072265625,-210.14404296875,6.53076171875,0.06982421875,0.02978515625,1.8642578125
101323,-30.517578125,-224.2431640625,7.14111328125,0.0849609375,0.025390625,1.95166015625
101324,-28.3203125,-239.8681640625,7.26318359375,0.02587890625,-0.02783203125,1.9892578125
101325,-27.9541015625,-256.77490234375,5.615234375,0.00927734375,-0.1494140625,2.015625
101326,-28.1982421875,-274.23095703125,2.25830078125,0.017578125,-0.17236328125,2.06494140625
101327,-27.40478515625,-293.88427734375,-1.03759765625,0.0009765625,-0.16796875,2.1171875
101328,-26.91650390625,-313.8427734375,-4.45556640625,0.02099609375,-0.23486328125,2.2177734375
101329,-27.40478515625,-337.21923828125,-8.72802734375,0.029296875,-0.2275390625,2.26708984375
101330,-20.20263671875,-358.70361328125,-11.04736328125,-0.00830078125,-0.21484375,2.365234375
101331,-10.8642578125,-384.1552734375,-12.0849609375,0.083984375,-0.18310546875,2.6240234375
101332,-1.40380859375,-404.60205078125,-10.31494140625,0.15234375,-0.05712890625,2.923828125
101333,-7.8125,-426.57470703125,-8.1787109375,0.134765625,-0.2255859375,3.00390625
