samplingrate,256.0
timestamp,acc_x,acc_y,acc_z,gyro_x,gyro_y,gyro_z,ecg
1.0,234.0,-1902.0,664.0,-31.0,169.0,-42.0,0.0
2.0,246.0,-1927.0,659.0,-33.0,174.0,-47.0,-1.0
3.0,225.0,-1928.0,650.0,-29.0,178.0,-49.0,-2.0
4.0,237.0,-1938.0,663.0,-30.0,173.0,-53.0,-3.0
5.0,213.0,-1925.0,661.0,-24.0,181.0,-50.0,-5.0
6.0,225.0,-1934.0,646.0,-29.0,187.0,-58.0,-7.0
7.0,224.0,-1936.0,658.0,-24.0,187.0,-57.0,-6.0
8.0,220.0,-1934.0,661.0,-23.0,191.0,-58.0,-3.0
9.0,223.0,-1935.0,639.0,-33.0,198.0,-54.0,-14.0
10.0,211.0,-1933.0,654.0,-28.0,205.0,-63.0,-27.0
11.0,221.0,-1936.0,635.0,-30.0,208.0,-65.0,-22.0
12.0,224.0,-1932.0,643.0,-32.0,209.0,-62.0,1.0
13.0,213.0,-1929.0,620.0,-40.0,212.0,-67.0,80.0
14.0,217.0,-1933.0,597.0,-34.0,219.0,-65.0,124.0
15.0,224.0,-1932.0,601.0,-20.0,218.0,-66.0,179.0
16.0,216.0,-1912.0,613.0,-19.0,221.0,-72.0,139.0
17.0,214.0,-1934.0,620.0,-26.0,215.0,-75.0,106.0
18.0,213.0,-1936.0,633.0,-22.0,221.0,-73.0,74.0
19.0,216.0,-1927.0,638.0,-25.0,220.0,-77.0,4.0
20.0,209.0,-1928.0,637.0,-19.0,230.0,-76.0,76.0
21.0,216.0,-1925.0,646.0,-24.0,233.0,-77.0,-82.0
22.0,219.0,-1922.0,643.0,-25.0,237.0,-74.0,115.0
23.0,219.0,-1920.0,645.0,-27.0,246.0,-77.0,-206.0
24.0,219.0,-1918.0,635.0,-35.0,256.0,-80.0,1952.0
25.0,212.0,-1916.0,642.0,-36.0,255.0,-78.0,4174.0
26.0,217.0,-1907.0,643.0,-42.0,263.0,-76.0,-1875.0
27.0,215.0,-1925.0,647.0,-36.0,267.0,-75.0,-9333.0
28.0,227.0,-1920.0,619.0,-39.0,275.0,-76.0,-4652.0
29.0,221.0,-1923.0,621.0,-40.0,278.0,-83.0,23629.0
30.0,235.0,-1913.0,630.0,-26.0,281.0,-82.0,72384.0
31.0,222.0,-1924.0,637.0,-37.0,286.0,-82.0,117732.0
32.0,219.0,-1938.0,621.0,-34.0,293.0,-87.0,127653.0
33.0,222.0,-1927.0,628.0,-32.0,292.0,-81.0,123351.0
34.0,218.0,-1929.0,612.0,-38.0,297.0,-84.0,91802.0
35.0,226.0,-1927.0,632.0,-29.0,302.0,-85.0,62345.0
36.0,232.0,-1939.0,618.0,-31.0,311.0,-85.0,44958.0
37.0,233.0,-1932.0,639.0,-30.0,302.0,-91.0,34209.0
38.0,228.0,-1912.0,629.0,-33.0,311.0,-90.0,28805.0
39.0,224.0,-1928.0,629.0,-35.0,304.0,-89.0,25084.0
40.0,228.0,-1919.0,645.0,-44.0,309.0,-95.0,20085.0
41.0,223.0,-1907.0,647.0,-37.0,303.0,-95.0,15492.0
42.0,232.0,-1916.0,631.0,-42.0,309.0,-101.0,11232.0
43.0,227.0,-1906.0,655.0,-40.0,305.0,-98.0,7695.0
44.0,231.0,-1932.0,652.0,-46.0,312.0,-105.0,4505.0
45.0,224.0,-1920.0,654.0,-41.0,311.0,-99.0,1640.0
46.0,216.0,-1915.0,649.0,-46.0,306.0,-100.0,-897.0
47.0,213.0,-1910.0,629.0,-51.0,318.0,-106.0,-3198.0
48.0,222.0,-1918.0,631.0,-45.0,322.0,-105.0,-5223.0
49.0,235.0,-1918.0,633.0,-47.0,326.0,-106.0,-7105.0
50.0,223.0,-1920.0,634.0,-46.0,331.0,-108.0,-8830.0
51.0,219.0,-1916.0,631.0,-49.0,337.0,-109.0,-10442.0
52.0,221.0,-1915.0,638.0,-50.0,339.0,-109.0,-11901.0
53.0,225.0,-1910.0,617.0,-47.0,342.0,-110.0,-13199.0
54.0,225.0,-1935.0,592.0,-49.0,342.0,-115.0,-14362.0
55.0,233.0,-1924.0,574.0,-51.0,353.0,-109.0,-15395.0
56.0,230.0,-1934.0,588.0,-39.0,357.0,-114.0,-16332.0
57.0,235.0,-1910.0,578.0,-39.0,362.0,-117.0,-17180.0
58.0,238.0,-1901.0,601.0,-44.0,369.0,-124.0,-17938.0
59.0,236.0,-1914.0,620.0,-45.0,378.0,-122.0,-18622.0
60.0,230.0,-1921.0,642.0,-45.0,380.0,-129.0,-19247.0
61.0,217.0,-1920.0,645.0,-51.0,372.0,-125.0,-19806.0
62.0,217.0,-1918.0,643.0,-49.0,373.0,-122.0,-20281.0
63.0,228.0,-1926.0,635.0,-48.0,378.0,-125.0,-20653.0
64.0,242.0,-1938.0,622.0,-36.0,381.0,-125.0,-20947.0
65.0,232.0,-1929.0,603.0,-42.0,380.0,-124.0,-21200.0
66.0,228.0,-1943.0,618.0,-40.0,382.0,-128.0,-21441.0
67.0,221.0,-1914.0,644.0,-52.0,387.0,-126.0,-21679.0
68.0,216.0,-1922.0,661.0,-54.0,383.0,-128.0,-21895.0
69.0,218.0,-1939.0,658.0,-52.0,386.0,-129.0,-22075.0
70.0,231.0,-1949.0,646.0,-53.0,389.0,-129.0,-22228.0
71.0,237.0,-1954.0,595.0,-33.0,376.0,-129.0,-22363.0
72.0,243.0,-1948.0,580.0,-20.0,383.0,-133.0,-22487.0
73.0,235.0,-1981.0,543.0,20.0,400.0,-131.0,-22587.0
74.0,244.0,-1961.0,510.0,38.0,407.0,-137.0,-22648.0
75.0,241.0,-1929.0,481.0,29.0,419.0,-145.0,-22672.0
76.0,231.0,-1886.0,527.0,1.0,421.0,-149.0,-22667.0
77.0,225.0,-1875.0,615.0,-41.0,429.0,-148.0,-22645.0
78.0,206.0,-1890.0,644.0,-63.0,430.0,-143.0,-22611.0
79.0,206.0,-1884.0,670.0,-88.0,422.0,-149.0,-22557.0
80.0,205.0,-1887.0,730.0,-102.0,437.0,-146.0,-22485.0
81.0,192.0,-1913.0,740.0,-115.0,447.0,-142.0,-22396.0
82.0,199.0,-1933.0,682.0,-100.0,462.0,-141.0,-22291.0
83.0,203.0,-1950.0,649.0,-79.0,464.0,-147.0,-22156.0
84.0,216.0,-1957.0,631.0,-51.0,460.0,-139.0,-22001.0
85.0,225.0,-1939.0,615.0,-32.0,447.0,-141.0,-21834.0
86.0,244.0,-1932.0,594.0,-24.0,450.0,-145.0,-21658.0
87.0,249.0,-1903.0,586.0,-25.0,461.0,-146.0,-21478.0
88.0,247.0,-1904.0,548.0,-34.0,487.0,-148.0,-21297.0
89.0,245.0,-1886.0,550.0,-49.0,497.0,-143.0,-21150.0
90.0,246.0,-1895.0,539.0,-71.0,510.0,-143.0,-21093.0
91.0,232.0,-1884.0,579.0,-80.0,516.0,-144.0,-21134.0
92.0,221.0,-1880.0,570.0,-95.0,513.0,-139.0,-21200.0
93.0,227.0,-1907.0,574.0,-102.0,510.0,-143.0,-21138.0
94.0,221.0,-1919.0,602.0,-99.0,506.0,-143.0,-20693.0
95.0,220.0,-1923.0,614.0,-95.0,493.0,-146.0,-19468.0
96.0,230.0,-1924.0,640.0,-99.0,494.0,-147.0,-17400.0
97.0,225.0,-1924.0,621.0,-108.0,491.0,-145.0,-15013.0
98.0,234.0,-1925.0,630.0,-97.0,480.0,-151.0,-13182.0
99.0,221.0,-1928.0,625.0,-100.0,471.0,-147.0,-12606.0
100.0,232.0,-1933.0,631.0,-97.0,470.0,-149.0,-13264.0
101.0,230.0,-1948.0,633.0,-94.0,459.0,-148.0,-14532.0
102.0,244.0,-1943.0,650.0,-81.0,454.0,-147.0,-15713.0
103.0,247.0,-1953.0,644.0,-84.0,454.0,-151.0,-16473.0
104.0,242.0,-1948.0,623.0,-77.0,452.0,-150.0,-16896.0
105.0,232.0,-1946.0,637.0,-74.0,445.0,-148.0,-17179.0
106.0,234.0,-1951.0,626.0,-64.0,448.0,-153.0,-17351.0
107.0,252.0,-1951.0,631.0,-55.0,440.0,-150.0,-17410.0
108.0,240.0,-1964.0,616.0,-50.0,446.0,-147.0,-17360.0
109.0,243.0,-1958.0,613.0,-43.0,441.0,-150.0,-17198.0
110.0,237.0,-1960.0,625.0,-42.0,444.0,-148.0,-16961.0
111.0,241.0,-1949.0,603.0,-29.0,443.0,-154.0,-16705.0
112.0,225.0,-1950.0,581.0,-33.0,442.0,-155.0,-16461.0
113.0,237.0,-1964.0,592.0,-33.0,447.0,-156.0,-16222.0
114.0,244.0,-1939.0,573.0,-38.0,456.0,-156.0,-15977.0
115.0,241.0,-1929.0,582.0,-32.0,457.0,-160.0,-15717.0
116.0,230.0,-1933.0,592.0,-36.0,468.0,-158.0,-15456.0
117.0,236.0,-1923.0,582.0,-34.0,471.0,-159.0,-15198.0
118.0,235.0,-1936.0,595.0,-39.0,478.0,-161.0,-14945.0
119.0,232.0,-1928.0,586.0,-41.0,473.0,-162.0,-14694.0
120.0,241.0,-1919.0,604.0,-49.0,483.0,-160.0,-14443.0
121.0,229.0,-1927.0,607.0,-50.0,478.0,-162.0,-14191.0
122.0,230.0,-1914.0,607.0,-53.0,481.0,-158.0,-13939.0
123.0,234.0,-1917.0,613.0,-62.0,492.0,-155.0,-13690.0
124.0,243.0,-1929.0,596.0,-59.0,491.0,-161.0,-13445.0
125.0,232.0,-1911.0,605.0,-55.0,490.0,-159.0,-13194.0
126.0,230.0,-1924.0,593.0,-57.0,496.0,-155.0,-12949.0
127.0,233.0,-1928.0,595.0,-54.0,492.0,-151.0,-12714.0
128.0,233.0,-1916.0,605.0,-57.0,491.0,-158.0,-12488.0
129.0,220.0,-1923.0,603.0,-64.0,490.0,-155.0,-12265.0
130.0,229.0,-1924.0,600.0,-59.0,483.0,-164.0,-12042.0
131.0,231.0,-1920.0,597.0,-53.0,495.0,-150.0,-11822.0
132.0,223.0,-1913.0,594.0,-53.0,491.0,-151.0,-11610.0
133.0,228.0,-1921.0,605.0,-53.0,486.0,-155.0,-11408.0
134.0,227.0,-1930.0,583.0,-59.0,489.0,-154.0,-11206.0
135.0,230.0,-1933.0,563.0,-56.0,494.0,-152.0,-10999.0
136.0,228.0,-1915.0,580.0,-48.0,492.0,-153.0,-10799.0
137.0,234.0,-1928.0,575.0,-48.0,490.0,-151.0,-10617.0
138.0,226.0,-1915.0,591.0,-59.0,487.0,-157.0,-10446.0
139.0,234.0,-1929.0,594.0,-66.0,490.0,-156.0,-10267.0
140.0,231.0,-1916.0,613.0,-67.0,494.0,-154.0,-10078.0
141.0,224.0,-1921.0,606.0,-76.0,490.0,-155.0,-9884.0
142.0,220.0,-1945.0,628.0,-70.0,493.0,-154.0,-9691.0
143.0,213.0,-1937.0,626.0,-60.0,501.0,-159.0,-9500.0
144.0,235.0,-1963.0,614.0,-50.0,505.0,-151.0,-9298.0
145.0,221.0,-1954.0,604.0,-47.0,489.0,-153.0,-9074.0
146.0,234.0,-1955.0,598.0,-38.0,491.0,-150.0,-8843.0
147.0,235.0,-1947.0,589.0,-33.0,483.0,-152.0,-8611.0
148.0,229.0,-1941.0,591.0,-48.0,484.0,-156.0,-8379.0
149.0,234.0,-1928.0,589.0,-54.0,489.0,-153.0,-8134.0
150.0,222.0,-1936.0,584.0,-54.0,487.0,-156.0,-7865.0
151.0,226.0,-1928.0,587.0,-63.0,489.0,-157.0,-7579.0
152.0,231.0,-1920.0,584.0,-64.0,490.0,-152.0,-7294.0
153.0,221.0,-1925.0,582.0,-65.0,487.0,-150.0,-7013.0
154.0,225.0,-1929.0,582.0,-63.0,491.0,-157.0,-6740.0
155.0,225.0,-1921.0,602.0,-65.0,487.0,-146.0,-6469.0
156.0,233.0,-1922.0,612.0,-71.0,485.0,-158.0,-6208.0
157.0,229.0,-1927.0,597.0,-67.0,481.0,-155.0,-5972.0
158.0,239.0,-1925.0,607.0,-70.0,490.0,-157.0,-5770.0
159.0,231.0,-1941.0,595.0,-62.0,485.0,-152.0,-5578.0
160.0,227.0,-1936.0,602.0,-55.0,487.0,-154.0,-5400.0
161.0,241.0,-1941.0,589.0,-54.0,493.0,-153.0,-5221.0
162.0,236.0,-1924.0,601.0,-44.0,491.0,-152.0,-5039.0
163.0,221.0,-1925.0,613.0,-55.0,488.0,-158.0,-4868.0
164.0,230.0,-1930.0,616.0,-49.0,496.0,-148.0,-4699.0
165.0,222.0,-1925.0,623.0,-55.0,497.0,-154.0,-4527.0
166.0,222.0,-1925.0,624.0,-51.0,490.0,-154.0,-4354.0
167.0,220.0,-1931.0,617.0,-61.0,497.0,-151.0,-4194.0
168.0,238.0,-1936.0,630.0,-49.0,490.0,-152.0,-4053.0
169.0,241.0,-1926.0,629.0,-58.0,490.0,-146.0,-3926.0
170.0,226.0,-1931.0,629.0,-51.0,493.0,-148.0,-3791.0
171.0,219.0,-1939.0,613.0,-55.0,486.0,-144.0,-3645.0
172.0,225.0,-1945.0,627.0,-55.0,486.0,-149.0,-3495.0
173.0,216.0,-1948.0,627.0,-53.0,479.0,-146.0,-3358.0
174.0,222.0,-1943.0,606.0,-60.0,482.0,-144.0,-3233.0
175.0,239.0,-1938.0,615.0,-58.0,479.0,-145.0,-3110.0
176.0,226.0,-1948.0,616.0,-50.0,476.0,-148.0,-2985.0
177.0,229.0,-1944.0,629.0,-55.0,483.0,-147.0,-2855.0
178.0,226.0,-1933.0,623.0,-55.0,477.0,-152.0,-2735.0
179.0,219.0,-1945.0,600.0,-59.0,474.0,-144.0,-2623.0
180.0,224.0,-1948.0,583.0,-60.0,472.0,-145.0,-2503.0
181.0,233.0,-1941.0,599.0,-52.0,468.0,-149.0,-2373.0
182.0,233.0,-1941.0,597.0,-48.0,467.0,-145.0,-2234.0
183.0,219.0,-1944.0,599.0,-45.0,464.0,-148.0,-2109.0
184.0,223.0,-1939.0,584.0,-40.0,464.0,-152.0,-2005.0
185.0,221.0,-1931.0,605.0,-39.0,459.0,-147.0,-1908.0
186.0,228.0,-1932.0,612.0,-36.0,455.0,-146.0,-1808.0
187.0,220.0,-1932.0,620.0,-35.0,452.0,-149.0,-1700.0
188.0,207.0,-1929.0,605.0,-37.0,446.0,-143.0,-1594.0
189.0,206.0,-1922.0,615.0,-39.0,445.0,-149.0,-1489.0
190.0,222.0,-1928.0,613.0,-43.0,451.0,-144.0,-1381.0
191.0,206.0,-1929.0,608.0,-39.0,447.0,-144.0,-1265.0
192.0,199.0,-1917.0,617.0,-40.0,441.0,-149.0,-1145.0
193.0,206.0,-1926.0,608.0,-45.0,451.0,-145.0,-1038.0
194.0,208.0,-1927.0,610.0,-44.0,445.0,-146.0,-947.0
195.0,196.0,-1924.0,616.0,-49.0,443.0,-146.0,-856.0
196.0,220.0,-1917.0,604.0,-53.0,439.0,-146.0,-750.0
197.0,207.0,-1920.0,608.0,-53.0,435.0,-149.0,-636.0
198.0,220.0,-1916.0,605.0,-49.0,434.0,-143.0,-530.0
199.0,212.0,-1908.0,601.0,-50.0,433.0,-141.0,-440.0
200.0,214.0,-1919.0,592.0,-48.0,427.0,-144.0,-351.0
201.0,217.0,-1920.0,583.0,-46.0,428.0,-144.0,-254.0
202.0,216.0,-1915.0,598.0,-48.0,426.0,-141.0,-150.0
203.0,207.0,-1916.0,588.0,-47.0,428.0,-139.0,-53.0
204.0,213.0,-1913.0,600.0,-47.0,422.0,-138.0,33.0
205.0,206.0,-1920.0,593.0,-46.0,418.0,-139.0,114.0
206.0,203.0,-1910.0,599.0,-42.0,415.0,-136.0,193.0
207.0,220.0,-1921.0,590.0,-39.0,411.0,-145.0,280.0
208.0,198.0,-1912.0,590.0,-39.0,408.0,-139.0,361.0
209.0,206.0,-1921.0,591.0,-39.0,402.0,-138.0,440.0
210.0,198.0,-1911.0,603.0,-38.0,397.0,-135.0,522.0
211.0,214.0,-1909.0,599.0,-35.0,395.0,-137.0,607.0
212.0,213.0,-1917.0,595.0,-40.0,392.0,-138.0,697.0
213.0,211.0,-1920.0,587.0,-41.0,392.0,-136.0,773.0
214.0,221.0,-1914.0,600.0,-42.0,382.0,-133.0,830.0
215.0,214.0,-1927.0,585.0,-40.0,380.0,-132.0,889.0
216.0,214.0,-1919.0,594.0,-44.0,378.0,-135.0,955.0
217.0,227.0,-1928.0,595.0,-51.0,371.0,-132.0,1037.0
218.0,216.0,-1922.0,579.0,-50.0,377.0,-133.0,1115.0
219.0,223.0,-1928.0,583.0,-48.0,369.0,-130.0,1179.0
220.0,219.0,-1930.0,584.0,-58.0,366.0,-129.0,1233.0
221.0,217.0,-1925.0,604.0,-58.0,362.0,-130.0,1292.0
222.0,216.0,-1937.0,581.0,-61.0,359.0,-120.0,1353.0
223.0,212.0,-1947.0,581.0,-60.0,355.0,-121.0,1415.0
224.0,215.0,-1941.0,600.0,-66.0,347.0,-129.0,1467.0
225.0,208.0,-1933.0,610.0,-64.0,343.0,-126.0,1513.0
226.0,212.0,-1931.0,595.0,-68.0,344.0,-126.0,1575.0
227.0,230.0,-1955.0,593.0,-67.0,337.0,-123.0,1646.0
228.0,219.0,-1948.0,611.0,-69.0,335.0,-121.0,1715.0
229.0,215.0,-1949.0,588.0,-70.0,323.0,-124.0,1764.0
230.0,204.0,-1952.0,622.0,-64.0,322.0,-122.0,1797.0
231.0,202.0,-1951.0,607.0,-59.0,312.0,-120.0,1832.0
232.0,208.0,-1951.0,617.0,-58.0,309.0,-117.0,1878.0
233.0,197.0,-1955.0,609.0,-58.0,306.0,-115.0,1923.0
234.0,203.0,-1957.0,627.0,-60.0,298.0,-115.0,1962.0
235.0,198.0,-1933.0,602.0,-54.0,297.0,-112.0,1996.0
236.0,200.0,-1948.0,604.0,-55.0,293.0,-110.0,2030.0
237.0,209.0,-1960.0,580.0,-58.0,288.0,-112.0,2080.0
238.0,201.0,-1964.0,593.0,-50.0,280.0,-109.0,2131.0
239.0,203.0,-1962.0,587.0,-45.0,278.0,-109.0,2172.0
240.0,208.0,-1967.0,581.0,-43.0,275.0,-104.0,2211.0
241.0,199.0,-1949.0,573.0,-47.0,271.0,-100.0,2259.0
242.0,210.0,-1946.0,574.0,-42.0,269.0,-99.0,2318.0
243.0,214.0,-1943.0,567.0,-39.0,261.0,-102.0,2372.0
244.0,212.0,-1950.0,601.0,-39.0,261.0,-98.0,2406.0
245.0,208.0,-1959.0,603.0,-41.0,256.0,-95.0,2409.0
246.0,197.0,-1951.0,615.0,-52.0,251.0,-95.0,2406.0
247.0,205.0,-1949.0,615.0,-43.0,251.0,-93.0,2434.0
248.0,195.0,-1958.0,618.0,-38.0,247.0,-90.0,2504.0
249.0,213.0,-1958.0,594.0,-31.0,244.0,-90.0,2604.0
250.0,210.0,-1953.0,609.0,-29.0,238.0,-80.0,2702.0
251.0,217.0,-1953.0,594.0,-31.0,238.0,-76.0,2784.0
252.0,202.0,-1943.0,628.0,-36.0,230.0,-77.0,2851.0
253.0,200.0,-1948.0,649.0,-43.0,228.0,-76.0,2896.0
254.0,208.0,-1945.0,663.0,-38.0,226.0,-73.0,2908.0
255.0,193.0,-1963.0,657.0,-31.0,215.0,-70.0,2896.0
256.0,227.0,-1960.0,608.0,-13.0,204.0,-61.0,2880.0
257.0,221.0,-1980.0,571.0,6.0,211.0,-63.0,2877.0
258.0,227.0,-1987.0,545.0,32.0,221.0,-63.0,2885.0
259.0,248.0,-1985.0,512.0,56.0,225.0,-67.0,2880.0
260.0,239.0,-1941.0,483.0,65.0,232.0,-69.0,2857.0
261.0,227.0,-1910.0,504.0,50.0,238.0,-65.0,2836.0
262.0,209.0,-1904.0,564.0,27.0,233.0,-62.0,2833.0
263.0,206.0,-1910.0,652.0,-9.0,227.0,-60.0,2850.0
264.0,188.0,-1882.0,686.0,-34.0,210.0,-57.0,2866.0
265.0,196.0,-1886.0,716.0,-58.0,210.0,-62.0,2868.0
266.0,174.0,-1912.0,733.0,-75.0,219.0,-57.0,2860.0
267.0,202.0,-1927.0,697.0,-71.0,221.0,-51.0,2857.0
268.0,205.0,-1935.0,661.0,-49.0,226.0,-42.0,2866.0
269.0,234.0,-1950.0,611.0,-26.0,220.0,-46.0,2878.0
270.0,230.0,-1948.0,594.0,-3.0,202.0,-45.0,2881.0
271.0,227.0,-1934.0,577.0,9.0,195.0,-44.0,2891.0
272.0,233.0,-1919.0,568.0,16.0,205.0,-44.0,2918.0
273.0,239.0,-1924.0,538.0,12.0,208.0,-46.0,2943.0
274.0,243.0,-1903.0,522.0,5.0,213.0,-45.0,2918.0
275.0,217.0,-1893.0,532.0,-14.0,225.0,-44.0,2787.0
276.0,232.0,-1884.0,559.0,-36.0,233.0,-43.0,2544.0
277.0,217.0,-1897.0,562.0,-52.0,233.0,-36.0,2274.0
278.0,214.0,-1895.0,576.0,-62.0,225.0,-37.0,2122.0
279.0,226.0,-1898.0,581.0,-63.0,219.0,-31.0,2316.0
280.0,231.0,-1912.0,599.0,-67.0,215.0,-33.0,3249.0
281.0,216.0,-1911.0,598.0,-70.0,217.0,-27.0,5048.0
282.0,223.0,-1912.0,630.0,-81.0,198.0,-29.0,7270.0
283.0,226.0,-1921.0,625.0,-80.0,184.0,-24.0,9064.0
284.0,223.0,-1919.0,638.0,-81.0,174.0,-28.0,9652.0
285.0,226.0,-1935.0,632.0,-79.0,158.0,-20.0,8927.0
286.0,228.0,-1928.0,622.0,-78.0,149.0,-23.0,7446.0
287.0,226.0,-1933.0,641.0,-66.0,142.0,-26.0,5935.0
288.0,230.0,-1943.0,632.0,-64.0,132.0,-19.0,4811.0
289.0,216.0,-1956.0,623.0,-59.0,126.0,-19.0,4057.0
290.0,218.0,-1946.0,641.0,-55.0,112.0,-25.0,3469.0
291.0,235.0,-1958.0,625.0,-46.0,110.0,-18.0,3007.0
292.0,223.0,-1968.0,634.0,-37.0,108.0,-17.0,2675.0
293.0,228.0,-1970.0,617.0,-30.0,95.0,-13.0,2454.0
294.0,209.0,-1959.0,613.0,-20.0,93.0,-17.0,2355.0
295.0,210.0,-1973.0,606.0,-15.0,82.0,-12.0,2314.0
296.0,212.0,-1976.0,605.0,-9.0,78.0,-17.0,2293.0
297.0,222.0,-1971.0,592.0,-9.0,69.0,-12.0,2268.0
298.0,218.0,-1962.0,581.0,-12.0,69.0,-14.0,2255.0
299.0,213.0,-1955.0,581.0,-4.0,65.0,-17.0,2265.0
300.0,202.0,-1954.0,569.0,8.0,54.0,-12.0,2278.0
301.0,214.0,-1957.0,575.0,8.0,64.0,-17.0,2274.0
302.0,205.0,-1953.0,564.0,2.0,57.0,-15.0,2264.0
303.0,209.0,-1938.0,571.0,2.0,55.0,-16.0,2266.0
304.0,193.0,-1937.0,567.0,7.0,53.0,-13.0,2282.0
305.0,213.0,-1942.0,592.0,0.0,46.0,-11.0,2298.0
306.0,202.0,-1932.0,577.0,0.0,44.0,-17.0,2304.0
307.0,208.0,-1929.0,581.0,2.0,39.0,-13.0,2300.0
308.0,213.0,-1929.0,598.0,0.0,30.0,-10.0,2311.0
309.0,212.0,-1924.0,583.0,-1.0,33.0,-15.0,2335.0
310.0,209.0,-1931.0,585.0,-1.0,29.0,-10.0,2350.0
311.0,200.0,-1946.0,578.0,10.0,29.0,-10.0,2345.0
312.0,210.0,-1939.0,581.0,13.0,17.0,-5.0,2328.0
313.0,215.0,-1940.0,596.0,11.0,16.0,-9.0,2327.0
314.0,210.0,-1924.0,595.0,2.0,11.0,-5.0,2338.0
315.0,216.0,-1949.0,601.0,12.0,-1.0,-1.0,2344.0
316.0,191.0,-1931.0,596.0,15.0,2.0,0.0,2331.0
317.0,205.0,-1923.0,590.0,15.0,4.0,1.0,2298.0
318.0,214.0,-1922.0,604.0,14.0,-7.0,2.0,2269.0
319.0,211.0,-1934.0,594.0,14.0,-10.0,6.0,2251.0
320.0,204.0,-1920.0,592.0,22.0,-15.0,10.0,2229.0
321.0,223.0,-1932.0,571.0,23.0,-15.0,5.0,2194.0
322.0,208.0,-1928.0,579.0,20.0,-23.0,12.0,2143.0
323.0,219.0,-1922.0,568.0,15.0,-24.0,14.0,2103.0
324.0,226.0,-1920.0,570.0,10.0,-27.0,15.0,2072.0
325.0,230.0,-1926.0,576.0,7.0,-31.0,13.0,2050.0
326.0,210.0,-1927.0,587.0,3.0,-28.0,13.0,2017.0
327.0,222.0,-1942.0,594.0,-2.0,-28.0,16.0,1975.0
328.0,211.0,-1938.0,613.0,-5.0,-21.0,19.0,1944.0
329.0,202.0,-1953.0,582.0,8.0,-16.0,19.0,1939.0
330.0,226.0,-1972.0,574.0,20.0,-33.0,22.0,1949.0
331.0,224.0,-1963.0,588.0,33.0,-39.0,25.0,1970.0
332.0,221.0,-1952.0,563.0,28.0,-46.0,22.0,1990.0
333.0,229.0,-1946.0,574.0,19.0,-50.0,27.0,2021.0
334.0,238.0,-1951.0,584.0,16.0,-46.0,26.0,2077.0
335.0,228.0,-1947.0,602.0,4.0,-54.0,26.0,2155.0
336.0,223.0,-1932.0,587.0,4.0,-53.0,26.0,2239.0
337.0,222.0,-1953.0,571.0,0.0,-58.0,24.0,2320.0
338.0,218.0,-1943.0,574.0,-3.0,-63.0,20.0,2412.0
339.0,222.0,-1950.0,573.0,12.0,-72.0,28.0,2525.0
340.0,220.0,-1939.0,583.0,0.0,-74.0,31.0,2645.0
341.0,227.0,-1926.0,591.0,-1.0,-82.0,29.0,2747.0
342.0,230.0,-1930.0,588.0,-1.0,-80.0,27.0,2813.0
343.0,237.0,-1941.0,587.0,-3.0,-81.0,33.0,2857.0
344.0,231.0,-1937.0,592.0,-9.0,-81.0,34.0,2895.0
345.0,226.0,-1935.0,609.0,-2.0,-84.0,33.0,2937.0
346.0,223.0,-1928.0,603.0,4.0,-86.0,33.0,2972.0
347.0,225.0,-1933.0,606.0,3.0,-85.0,32.0,2981.0
348.0,221.0,-1925.0,591.0,6.0,-84.0,30.0,2983.0
349.0,231.0,-1938.0,602.0,8.0,-85.0,36.0,2982.0
350.0,219.0,-1954.0,596.0,6.0,-84.0,40.0,2999.0
351.0,223.0,-1943.0,609.0,11.0,-81.0,39.0,3011.0
352.0,220.0,-1939.0,629.0,10.0,-87.0,41.0,3010.0
353.0,215.0,-1930.0,623.0,10.0,-88.0,43.0,2997.0
354.0,217.0,-1949.0,614.0,15.0,-89.0,40.0,2990.0
355.0,224.0,-1933.0,609.0,12.0,-90.0,39.0,2986.0
356.0,216.0,-1954.0,608.0,12.0,-93.0,46.0,2981.0
357.0,228.0,-1942.0,616.0,11.0,-105.0,50.0,2959.0
358.0,221.0,-1937.0,615.0,19.0,-107.0,45.0,2929.0
359.0,225.0,-1950.0,614.0,9.0,-100.0,48.0,2907.0
360.0,224.0,-1939.0,605.0,14.0,-114.0,46.0,2900.0
361.0,213.0,-1933.0,602.0,19.0,-114.0,48.0,2895.0
362.0,222.0,-1931.0,604.0,5.0,-115.0,48.0,2876.0
363.0,216.0,-1936.0,603.0,12.0,-120.0,47.0,2849.0
364.0,224.0,-1940.0,604.0,9.0,-125.0,51.0,2824.0
365.0,221.0,-1936.0,595.0,7.0,-122.0,50.0,2813.0
366.0,216.0,-1928.0,579.0,4.0,-121.0,49.0,2806.0
367.0,208.0,-1937.0,587.0,4.0,-132.0,49.0,2784.0
368.0,215.0,-1939.0,590.0,10.0,-129.0,51.0,2749.0
369.0,225.0,-1946.0,584.0,14.0,-137.0,49.0,2723.0
370.0,230.0,-1926.0,575.0,10.0,-137.0,47.0,2714.0
371.0,220.0,-1936.0,588.0,15.0,-141.0,47.0,2721.0
372.0,224.0,-1926.0,599.0,23.0,-148.0,47.0,2718.0
373.0,223.0,-1923.0,598.0,19.0,-148.0,44.0,2702.0
374.0,227.0,-1924.0,593.0,23.0,-158.0,52.0,2686.0
375.0,227.0,-1929.0,594.0,19.0,-159.0,57.0,2687.0
376.0,209.0,-1934.0,609.0,19.0,-159.0,50.0,2702.0
377.0,220.0,-1927.0,601.0,18.0,-156.0,56.0,2711.0
378.0,222.0,-1930.0,588.0,19.0,-166.0,52.0,2706.0
379.0,219.0,-1922.0,593.0,19.0,-162.0,54.0,2699.0
380.0,213.0,-1937.0,591.0,22.0,-165.0,56.0,2700.0
381.0,220.0,-1930.0,598.0,16.0,-168.0,53.0,2711.0
382.0,226.0,-1930.0,606.0,19.0,-169.0,60.0,2717.0
383.0,219.0,-1931.0,585.0,13.0,-169.0,56.0,2710.0
384.0,219.0,-1926.0,597.0,16.0,-169.0,55.0,2702.0
385.0,223.0,-1929.0,603.0,17.0,-171.0,56.0,2704.0
386.0,225.0,-1928.0,591.0,19.0,-176.0,59.0,2720.0
387.0,225.0,-1935.0,604.0,14.0,-171.0,56.0,2726.0
388.0,222.0,-1922.0,585.0,17.0,-170.0,59.0,2715.0
389.0,220.0,-1927.0,590.0,12.0,-175.0,54.0,2702.0
390.0,222.0,-1932.0,592.0,19.0,-171.0,62.0,2697.0
391.0,225.0,-1932.0,580.0,21.0,-178.0,59.0,2710.0
392.0,226.0,-1937.0,587.0,22.0,-181.0,63.0,2721.0
393.0,219.0,-1938.0,601.0,21.0,-178.0,56.0,2713.0
394.0,217.0,-1932.0,594.0,20.0,-182.0,58.0,2693.0
395.0,220.0,-1938.0,578.0,22.0,-182.0,66.0,2679.0
396.0,216.0,-1933.0,602.0,18.0,-191.0,63.0,2685.0
397.0,207.0,-1942.0,592.0,25.0,-189.0,64.0,2693.0
398.0,222.0,-1926.0,598.0,27.0,-189.0,56.0,2694.0
399.0,219.0,-1942.0,608.0,22.0,-192.0,54.0,2682.0
400.0,206.0,-1939.0,593.0,26.0,-199.0,62.0,2673.0
401.0,213.0,-1926.0,608.0,25.0,-202.0,60.0,2673.0
402.0,224.0,-1934.0,600.0,23.0,-208.0,58.0,2678.0
403.0,212.0,-1932.0,604.0,31.0,-209.0,57.0,2670.0
404.0,216.0,-1941.0,612.0,27.0,-207.0,67.0,2651.0
405.0,218.0,-1945.0,597.0,25.0,-210.0,64.0,2637.0
406.0,215.0,-1945.0,618.0,28.0,-217.0,63.0,2630.0
407.0,218.0,-1948.0,589.0,30.0,-214.0,63.0,2631.0
408.0,223.0,-1936.0,600.0,31.0,-213.0,63.0,2620.0
409.0,223.0,-1936.0,591.0,30.0,-214.0,63.0,2594.0
410.0,212.0,-1938.0,601.0,30.0,-211.0,59.0,2574.0
411.0,226.0,-1948.0,602.0,32.0,-216.0,64.0,2567.0
412.0,220.0,-1934.0,604.0,29.0,-217.0,61.0,2567.0
413.0,227.0,-1939.0,583.0,30.0,-220.0,67.0,2562.0
414.0,223.0,-1933.0,605.0,33.0,-222.0,67.0,2543.0
415.0,226.0,-1941.0,592.0,29.0,-222.0,68.0,2519.0
416.0,222.0,-1934.0,580.0,30.0,-226.0,67.0,2504.0
417.0,223.0,-1936.0,586.0,23.0,-225.0,65.0,2500.0
418.0,224.0,-1932.0,588.0,26.0,-228.0,69.0,2494.0
419.0,218.0,-1941.0,606.0,26.0,-232.0,69.0,2476.0
420.0,219.0,-1929.0,598.0,21.0,-235.0,71.0,2447.0
421.0,220.0,-1934.0,602.0,25.0,-239.0,67.0,2427.0
422.0,225.0,-1942.0,623.0,24.0,-244.0,69.0,2415.0
423.0,208.0,-1934.0,603.0,32.0,-240.0,73.0,2408.0
424.0,220.0,-1940.0,587.0,30.0,-241.0,70.0,2392.0
425.0,223.0,-1929.0,602.0,33.0,-245.0,69.0,2374.0
426.0,216.0,-1928.0,608.0,32.0,-242.0,72.0,2359.0
427.0,204.0,-1936.0,594.0,30.0,-236.0,70.0,2342.0
428.0,207.0,-1932.0,594.0,27.0,-239.0,76.0,2322.0
429.0,213.0,-1937.0,584.0,27.0,-236.0,71.0,2296.0
430.0,210.0,-1929.0,576.0,28.0,-242.0,80.0,2271.0
431.0,219.0,-1938.0,570.0,34.0,-240.0,80.0,2257.0
432.0,216.0,-1942.0,568.0,31.0,-239.0,76.0,2253.0
433.0,212.0,-1941.0,576.0,36.0,-243.0,73.0,2248.0
434.0,225.0,-1920.0,559.0,30.0,-236.0,76.0,2234.0
435.0,223.0,-1920.0,585.0,29.0,-242.0,74.0,2221.0
436.0,236.0,-1922.0,581.0,25.0,-237.0,72.0,2215.0
437.0,219.0,-1912.0,598.0,24.0,-244.0,73.0,2212.0
438.0,214.0,-1945.0,598.0,24.0,-246.0,72.0,2190.0
439.0,222.0,-1939.0,614.0,21.0,-244.0,77.0,2156.0
440.0,219.0,-1932.0,603.0,32.0,-248.0,74.0,2142.0
441.0,227.0,-1943.0,586.0,32.0,-246.0,70.0,2171.0
442.0,227.0,-1943.0,592.0,33.0,-252.0,74.0,2241.0
443.0,234.0,-1939.0,586.0,34.0,-253.0,80.0,2311.0
444.0,222.0,-1938.0,601.0,30.0,-254.0,73.0,2342.0
445.0,219.0,-1939.0,622.0,31.0,-254.0,77.0,2331.0
446.0,218.0,-1934.0,638.0,28.0,-258.0,74.0,2296.0
447.0,226.0,-1959.0,636.0,31.0,-262.0,83.0,2264.0
448.0,233.0,-1960.0,597.0,50.0,-262.0,87.0,2233.0
449.0,224.0,-1959.0,576.0,66.0,-270.0,84.0,2200.0
450.0,225.0,-1973.0,559.0,82.0,-262.0,82.0,2152.0
451.0,232.0,-1976.0,505.0,102.0,-252.0,71.0,2102.0
452.0,236.0,-1956.0,491.0,113.0,-244.0,75.0,2058.0
453.0,216.0,-1925.0,507.0,99.0,-240.0,72.0,2026.0
454.0,216.0,-1914.0,534.0,79.0,-239.0,71.0,1988.0
455.0,223.0,-1906.0,556.0,54.0,-241.0,76.0,1944.0
456.0,207.0,-1908.0,628.0,27.0,-264.0,80.0,1897.0
457.0,204.0,-1897.0,696.0,8.0,-270.0,80.0,1866.0
458.0,214.0,-1893.0,713.0,-12.0,-280.0,78.0,1849.0
459.0,202.0,-1905.0,712.0,-4.0,-283.0,79.0,1837.0
460.0,203.0,-1925.0,669.0,-2.0,-270.0,83.0,1812.0
461.0,217.0,-1949.0,624.0,28.0,-265.0,79.0,1781.0
462.0,219.0,-1964.0,577.0,50.0,-268.0,79.0,1765.0
463.0,224.0,-1962.0,576.0,65.0,-284.0,79.0,1771.0
464.0,217.0,-1947.0,574.0,69.0,-283.0,89.0,1792.0
465.0,225.0,-1936.0,555.0,68.0,-280.0,78.0,1793.0
466.0,211.0,-1919.0,534.0,71.0,-267.0,86.0,1742.0
467.0,222.0,-1914.0,535.0,65.0,-251.0,85.0,1609.0
468.0,230.0,-1906.0,540.0,53.0,-244.0,85.0,1376.0
469.0,215.0,-1905.0,535.0,29.0,-230.0,87.0,1087.0
470.0,219.0,-1902.0,563.0,16.0,-244.0,90.0,858.0
471.0,220.0,-1910.0,575.0,7.0,-240.0,90.0,894.0
472.0,220.0,-1922.0,603.0,5.0,-248.0,93.0,1618.0
473.0,226.0,-1936.0,593.0,6.0,-252.0,94.0,3252.0
474.0,223.0,-1928.0,585.0,12.0,-254.0,93.0,5438.0
475.0,226.0,-1926.0,603.0,18.0,-260.0,93.0,7363.0
476.0,221.0,-1939.0,613.0,5.0,-273.0,95.0,8210.0
477.0,214.0,-1942.0,617.0,4.0,-279.0,100.0,7732.0
478.0,228.0,-1939.0,616.0,14.0,-286.0,89.0,6378.0
479.0,228.0,-1956.0,630.0,15.0,-298.0,97.0,4824.0
480.0,246.0,-1950.0,622.0,23.0,-301.0,93.0,3530.0
481.0,231.0,-1944.0,625.0,26.0,-304.0,99.0,2589.0
482.0,222.0,-1950.0,632.0,33.0,-311.0,101.0,1862.0
483.0,237.0,-1955.0,609.0,37.0,-307.0,98.0,1307.0
484.0,243.0,-1963.0,634.0,46.0,-319.0,97.0,913.0
485.0,222.0,-1957.0,611.0,51.0,-320.0,102.0,613.0
486.0,228.0,-1979.0,607.0,59.0,-323.0,103.0,416.0
487.0,225.0,-1965.0,599.0,57.0,-323.0,105.0,312.0
488.0,234.0,-1973.0,592.0,73.0,-328.0,101.0,267.0
489.0,222.0,-1967.0,594.0,64.0,-325.0,100.0,230.0
490.0,219.0,-1964.0,593.0,67.0,-328.0,97.0,186.0
491.0,230.0,-1955.0,592.0,63.0,-335.0,96.0,149.0
492.0,216.0,-1944.0,585.0,68.0,-337.0,97.0,136.0
493.0,226.0,-1941.0,574.0,67.0,-328.0,90.0,140.0
494.0,232.0,-1937.0,591.0,66.0,-325.0,95.0,149.0
495.0,211.0,-1953.0,592.0,59.0,-325.0,89.0,145.0
496.0,223.0,-1937.0,599.0,61.0,-321.0,92.0,133.0
497.0,225.0,-1955.0,584.0,65.0,-321.0,90.0,124.0
498.0,217.0,-1925.0,610.0,53.0,-321.0,91.0,127.0
499.0,229.0,-1931.0,612.0,63.0,-328.0,93.0,137.0
500.0,225.0,-1923.0,633.0,58.0,-329.0,87.0,140.0
501.0,229.0,-1926.0,624.0,60.0,-330.0,88.0,132.0
502.0,225.0,-1947.0,612.0,59.0,-331.0,92.0,124.0
503.0,222.0,-1919.0,619.0,62.0,-330.0,91.0,125.0
504.0,231.0,-1925.0,597.0,61.0,-334.0,93.0,131.0
505.0,232.0,-1936.0,600.0,62.0,-333.0,97.0,125.0
506.0,227.0,-1927.0,627.0,55.0,-335.0,98.0,108.0
507.0,221.0,-1926.0,599.0,62.0,-330.0,89.0,85.0
508.0,222.0,-1928.0,601.0,54.0,-332.0,92.0,74.0
509.0,217.0,-1929.0,611.0,58.0,-329.0,90.0,63.0
510.0,221.0,-1932.0,610.0,62.0,-335.0,93.0,48.0
511.0,221.0,-1939.0,608.0,61.0,-336.0,96.0,18.0
512.0,229.0,-1934.0,598.0,58.0,-339.0,97.0,-16.0
513.0,235.0,-1932.0,598.0,63.0,-338.0,101.0,-45.0
514.0,234.0,-1939.0,596.0,63.0,-336.0,98.0,-71.0
515.0,233.0,-1921.0,590.0,67.0,-339.0,101.0,-98.0
516.0,223.0,-1925.0,593.0,56.0,-339.0,101.0,-134.0
517.0,232.0,-1917.0,606.0,55.0,-342.0,95.0,-172.0
518.0,222.0,-1917.0,608.0,49.0,-338.0,101.0,-205.0
519.0,226.0,-1916.0,620.0,46.0,-336.0,100.0,-225.0
520.0,226.0,-1927.0,633.0,41.0,-342.0,103.0,-243.0
521.0,204.0,-1937.0,632.0,50.0,-332.0,98.0,-257.0
522.0,222.0,-1967.0,608.0,61.0,-326.0,98.0,-271.0
523.0,235.0,-1941.0,601.0,86.0,-337.0,103.0,-257.0
524.0,233.0,-1936.0,616.0,79.0,-344.0,102.0,-227.0
525.0,232.0,-1939.0,594.0,71.0,-346.0,99.0,-171.0
526.0,243.0,-1936.0,598.0,71.0,-340.0,103.0,-114.0
527.0,238.0,-1927.0,612.0,59.0,-344.0,105.0,-48.0
528.0,237.0,-1918.0,599.0,59.0,-351.0,104.0,38.0
529.0,226.0,-1922.0,613.0,58.0,-342.0,104.0,142.0
530.0,223.0,-1930.0,595.0,53.0,-346.0,101.0,261.0
531.0,237.0,-1923.0,607.0,69.0,-353.0,107.0,383.0
532.0,219.0,-1924.0,598.0,65.0,-349.0,100.0,499.0
533.0,235.0,-1916.0,597.0,66.0,-357.0,102.0,606.0
534.0,227.0,-1931.0,608.0,62.0,-353.0,97.0,705.0
535.0,221.0,-1924.0,619.0,64.0,-354.0,99.0,790.0
536.0,229.0,-1929.0,617.0,56.0,-355.0,98.0,855.0
537.0,230.0,-1921.0,599.0,62.0,-357.0,99.0,902.0
538.0,232.0,-1926.0,607.0,68.0,-356.0,96.0,943.0
539.0,235.0,-1928.0,619.0,65.0,-356.0,100.0,983.0
540.0,233.0,-1925.0,606.0,70.0,-351.0,94.0,1018.0
541.0,229.0,-1931.0,598.0,73.0,-348.0,100.0,1038.0
542.0,238.0,-1925.0,618.0,65.0,-350.0,96.0,1048.0
543.0,236.0,-1924.0,602.0,66.0,-357.0,99.0,1053.0
544.0,236.0,-1912.0,604.0,60.0,-348.0,99.0,1068.0
545.0,234.0,-1915.0,612.0,68.0,-345.0,101.0,1078.0
546.0,231.0,-1931.0,616.0,62.0,-342.0,100.0,1078.0
547.0,228.0,-1923.0,614.0,54.0,-347.0,101.0,1063.0
548.0,238.0,-1921.0,618.0,58.0,-347.0,98.0,1041.0
549.0,225.0,-1922.0,607.0,60.0,-344.0,99.0,1020.0
550.0,234.0,-1940.0,609.0,57.0,-352.0,105.0,1010.0
551.0,227.0,-1922.0,610.0,59.0,-351.0,106.0,995.0
552.0,236.0,-1934.0,614.0,58.0,-351.0,98.0,973.0
553.0,229.0,-1931.0,610.0,53.0,-349.0,100.0,951.0
554.0,238.0,-1941.0,618.0,55.0,-349.0,104.0,938.0
555.0,225.0,-1927.0,614.0,51.0,-347.0,104.0,928.0
556.0,223.0,-1939.0,600.0,49.0,-353.0,107.0,921.0
557.0,225.0,-1945.0,604.0,43.0,-345.0,100.0,908.0
558.0,225.0,-1948.0,634.0,44.0,-351.0,106.0,890.0
559.0,221.0,-1930.0,598.0,43.0,-348.0,107.0,880.0
560.0,223.0,-1929.0,606.0,46.0,-353.0,107.0,877.0
561.0,223.0,-1942.0,601.0,51.0,-345.0,102.0,876.0
562.0,233.0,-1937.0,573.0,51.0,-357.0,105.0,866.0
563.0,231.0,-1939.0,586.0,48.0,-358.0,103.0,849.0
564.0,213.0,-1949.0,591.0,48.0,-360.0,106.0,833.0
565.0,214.0,-1954.0,602.0,50.0,-365.0,108.0,825.0
566.0,208.0,-1939.0,616.0,53.0,-359.0,100.0,824.0
567.0,216.0,-1934.0,628.0,54.0,-361.0,109.0,820.0
568.0,216.0,-1931.0,630.0,57.0,-365.0,108.0,818.0
569.0,212.0,-1943.0,619.0,57.0,-366.0,107.0,829.0
570.0,206.0,-1940.0,614.0,61.0,-364.0,106.0,852.0
571.0,218.0,-1947.0,613.0,58.0,-368.0,109.0,879.0
572.0,208.0,-1947.0,612.0,56.0,-364.0,110.0,892.0
573.0,228.0,-1944.0,637.0,62.0,-368.0,108.0,896.0
574.0,219.0,-1955.0,622.0,63.0,-363.0,106.0,900.0
575.0,211.0,-1930.0,629.0,65.0,-360.0,115.0,917.0
576.0,232.0,-1932.0,628.0,59.0,-361.0,110.0,937.0
577.0,207.0,-1934.0,614.0,59.0,-359.0,112.0,948.0
578.0,225.0,-1934.0,617.0,56.0,-364.0,113.0,949.0
579.0,216.0,-1939.0,620.0,59.0,-362.0,114.0,953.0
580.0,225.0,-1922.0,624.0,55.0,-364.0,109.0,968.0
581.0,229.0,-1930.0,628.0,54.0,-358.0,114.0,986.0
582.0,233.0,-1932.0,621.0,57.0,-356.0,114.0,997.0
583.0,219.0,-1924.0,606.0,61.0,-355.0,109.0,995.0
584.0,233.0,-1924.0,625.0,63.0,-352.0,113.0,991.0
585.0,238.0,-1931.0,614.0,60.0,-352.0,113.0,1002.0
586.0,236.0,-1919.0,618.0,60.0,-357.0,114.0,1023.0
587.0,231.0,-1915.0,613.0,62.0,-353.0,109.0,1038.0
588.0,239.0,-1930.0,612.0,67.0,-355.0,112.0,1039.0
589.0,242.0,-1919.0,615.0,65.0,-357.0,109.0,1031.0
590.0,232.0,-1916.0,616.0,64.0,-351.0,105.0,1027.0
591.0,239.0,-1924.0,628.0,59.0,-350.0,113.0,1034.0
592.0,223.0,-1914.0,612.0,63.0,-351.0,108.0,1043.0
593.0,232.0,-1911.0,633.0,58.0,-353.0,109.0,1041.0
594.0,243.0,-1914.0,610.0,59.0,-348.0,101.0,1034.0
595.0,240.0,-1908.0,630.0,57.0,-353.0,108.0,1031.0
596.0,229.0,-1916.0,611.0,58.0,-348.0,105.0,1033.0
597.0,242.0,-1911.0,621.0,60.0,-351.0,111.0,1033.0
598.0,241.0,-1911.0,627.0,54.0,-347.0,107.0,1021.0
599.0,222.0,-1914.0,625.0,67.0,-346.0,110.0,1007.0
600.0,234.0,-1918.0,616.0,61.0,-351.0,106.0,1005.0
601.0,234.0,-1926.0,622.0,53.0,-347.0,104.0,1017.0
602.0,241.0,-1911.0,615.0,53.0,-345.0,106.0,1029.0
603.0,237.0,-1926.0,629.0,50.0,-342.0,107.0,1029.0
604.0,231.0,-1919.0,631.0,44.0,-339.0,99.0,1019.0
605.0,243.0,-1931.0,629.0,53.0,-337.0,102.0,1009.0
606.0,248.0,-1916.0,616.0,54.0,-334.0,102.0,1008.0
607.0,239.0,-1920.0,624.0,49.0,-333.0,100.0,1014.0
608.0,244.0,-1928.0,618.0,38.0,-336.0,104.0,1010.0
609.0,256.0,-1925.0,635.0,39.0,-323.0,103.0,1001.0
610.0,251.0,-1925.0,609.0,42.0,-323.0,105.0,991.0
611.0,249.0,-1918.0,636.0,39.0,-322.0,100.0,994.0
612.0,238.0,-1916.0,616.0,38.0,-322.0,105.0,999.0
613.0,239.0,-1915.0,624.0,42.0,-329.0,100.0,996.0
614.0,250.0,-1926.0,625.0,39.0,-319.0,102.0,985.0
615.0,248.0,-1918.0,626.0,36.0,-318.0,102.0,974.0
616.0,250.0,-1918.0,641.0,44.0,-312.0,95.0,967.0
617.0,246.0,-1928.0,629.0,39.0,-317.0,97.0,966.0
618.0,236.0,-1919.0,627.0,39.0,-313.0,94.0,959.0
619.0,264.0,-1922.0,637.0,33.0,-309.0,96.0,942.0
620.0,269.0,-1930.0,647.0,42.0,-313.0,99.0,925.0
621.0,244.0,-1919.0,634.0,40.0,-301.0,91.0,915.0
622.0,250.0,-1933.0,648.0,43.0,-310.0,93.0,913.0
623.0,254.0,-1931.0,621.0,40.0,-305.0,89.0,912.0
624.0,249.0,-1933.0,635.0,43.0,-305.0,94.0,901.0
625.0,236.0,-1923.0,637.0,50.0,-299.0,88.0,883.0
626.0,244.0,-1914.0,627.0,52.0,-298.0,89.0,870.0
627.0,261.0,-1926.0,628.0,50.0,-295.0,90.0,868.0
628.0,255.0,-1917.0,629.0,44.0,-289.0,94.0,864.0
629.0,241.0,-1913.0,633.0,47.0,-277.0,86.0,855.0
630.0,250.0,-1928.0,642.0,49.0,-275.0,84.0,842.0
631.0,248.0,-1931.0,621.0,51.0,-273.0,81.0,828.0
632.0,236.0,-1910.0,627.0,48.0,-267.0,79.0,825.0
633.0,254.0,-1928.0,614.0,44.0,-260.0,86.0,821.0
634.0,257.0,-1940.0,615.0,49.0,-258.0,82.0,810.0
635.0,248.0,-1918.0,600.0,45.0,-254.0,77.0,801.0
636.0,257.0,-1919.0,608.0,44.0,-245.0,80.0,807.0
637.0,268.0,-1918.0,617.0,37.0,-243.0,71.0,823.0
638.0,252.0,-1917.0,620.0,35.0,-235.0,72.0,823.0
639.0,252.0,-1911.0,635.0,24.0,-229.0,73.0,794.0
640.0,259.0,-1916.0,635.0,32.0,-231.0,74.0,753.0
641.0,253.0,-1925.0,635.0,25.0,-223.0,72.0,732.0
642.0,258.0,-1926.0,640.0,27.0,-224.0,75.0,760.0
643.0,269.0,-1934.0,644.0,27.0,-226.0,72.0,826.0
644.0,243.0,-1929.0,645.0,26.0,-221.0,67.0,894.0
645.0,243.0,-1929.0,662.0,32.0,-223.0,65.0,937.0
646.0,247.0,-1931.0,675.0,29.0,-211.0,69.0,942.0
647.0,239.0,-1939.0,672.0,28.0,-204.0,68.0,921.0
648.0,252.0,-1945.0,653.0,43.0,-199.0,68.0,884.0
649.0,251.0,-1951.0,633.0,53.0,-211.0,69.0,853.0
650.0,254.0,-1956.0,605.0,72.0,-206.0,66.0,830.0
651.0,259.0,-1943.0,591.0,82.0,-200.0,62.0,808.0
652.0,254.0,-1962.0,557.0,94.0,-179.0,54.0,784.0
653.0,262.0,-1935.0,529.0,104.0,-164.0,51.0,758.0
654.0,258.0,-1922.0,528.0,90.0,-149.0,46.0,720.0
655.0,240.0,-1895.0,558.0,73.0,-139.0,47.0,686.0
656.0,238.0,-1880.0,605.0,41.0,-131.0,51.0,655.0
657.0,236.0,-1879.0,688.0,11.0,-139.0,45.0,633.0
658.0,229.0,-1869.0,741.0,-8.0,-157.0,48.0,621.0
659.0,217.0,-1874.0,753.0,-30.0,-158.0,49.0,610.0
660.0,232.0,-1915.0,738.0,-27.0,-143.0,40.0,597.0
661.0,242.0,-1924.0,688.0,-8.0,-133.0,48.0,584.0
662.0,262.0,-1943.0,665.0,6.0,-122.0,43.0,572.0
663.0,245.0,-1948.0,635.0,31.0,-108.0,48.0,564.0
664.0,245.0,-1939.0,603.0,41.0,-110.0,48.0,562.0
665.0,246.0,-1933.0,595.0,41.0,-111.0,41.0,568.0
666.0,254.0,-1905.0,604.0,41.0,-106.0,42.0,569.0
667.0,243.0,-1907.0,565.0,34.0,-87.0,40.0,529.0
668.0,236.0,-1891.0,537.0,33.0,-70.0,46.0,402.0
669.0,250.0,-1896.0,558.0,20.0,-50.0,39.0,154.0
670.0,227.0,-1878.0,569.0,9.0,-43.0,37.0,-164.0
671.0,239.0,-1884.0,582.0,-3.0,-39.0,44.0,-426.0
672.0,240.0,-1897.0,622.0,-16.0,-36.0,41.0,-415.0
673.0,236.0,-1904.0,609.0,-20.0,-39.0,39.0,283.0
674.0,252.0,-1909.0,632.0,-23.0,-40.0,38.0,1899.0
675.0,256.0,-1902.0,641.0,-18.0,-30.0,35.0,4103.0
676.0,265.0,-1925.0,636.0,-19.0,-43.0,35.0,6105.0
677.0,244.0,-1905.0,650.0,-24.0,-38.0,33.0,7088.0
678.0,252.0,-1917.0,645.0,-28.0,-43.0,26.0,6782.0
679.0,239.0,-1935.0,660.0,-21.0,-41.0,35.0,5599.0
680.0,255.0,-1927.0,657.0,-24.0,-43.0,30.0,4176.0
681.0,240.0,-1930.0,655.0,-15.0,-45.0,32.0,2969.0
682.0,259.0,-1935.0,659.0,-7.0,-46.0,26.0,2057.0
683.0,241.0,-1933.0,664.0,2.0,-40.0,24.0,1319.0
684.0,255.0,-1939.0,630.0,-2.0,-37.0,25.0,721.0
685.0,259.0,-1950.0,644.0,9.0,-31.0,23.0,283.0
686.0,264.0,-1951.0,623.0,8.0,-35.0,21.0,-33.0
687.0,225.0,-1943.0,633.0,15.0,-31.0,19.0,-224.0
688.0,243.0,-1939.0,632.0,7.0,-26.0,20.0,-316.0
689.0,248.0,-1953.0,640.0,21.0,-27.0,15.0,-352.0
690.0,241.0,-1947.0,642.0,20.0,-22.0,16.0,-382.0
691.0,248.0,-1953.0,616.0,26.0,-16.0,15.0,-423.0
692.0,244.0,-1944.0,618.0,24.0,-9.0,5.0,-443.0
693.0,241.0,-1941.0,628.0,17.0,-5.0,8.0,-441.0
694.0,245.0,-1929.0,609.0,24.0,2.0,2.0,-433.0
695.0,258.0,-1933.0,613.0,16.0,8.0,0.0,-437.0
696.0,243.0,-1917.0,605.0,13.0,9.0,-3.0,-446.0
697.0,230.0,-1931.0,612.0,15.0,19.0,-10.0,-451.0
698.0,245.0,-1921.0,621.0,14.0,23.0,-13.0,-437.0
699.0,234.0,-1921.0,626.0,9.0,33.0,-4.0,-411.0
700.0,240.0,-1911.0,603.0,9.0,36.0,-8.0,-384.0
701.0,245.0,-1924.0,626.0,4.0,40.0,-9.0,-374.0
702.0,242.0,-1912.0,629.0,5.0,47.0,-15.0,-370.0
703.0,232.0,-1915.0,653.0,6.0,47.0,-16.0,-372.0
704.0,228.0,-1919.0,640.0,4.0,48.0,-21.0,-369.0
705.0,239.0,-1924.0,627.0,4.0,52.0,-21.0,-378.0
706.0,229.0,-1929.0,627.0,2.0,55.0,-18.0,-394.0
707.0,224.0,-1925.0,627.0,1.0,60.0,-19.0,-418.0
708.0,229.0,-1918.0,632.0,4.0,59.0,-17.0,-433.0
709.0,242.0,-1928.0,620.0,7.0,63.0,-18.0,-441.0
710.0,234.0,-1932.0,624.0,10.0,68.0,-20.0,-455.0
711.0,237.0,-1918.0,618.0,10.0,72.0,-23.0,-484.0
712.0,223.0,-1907.0,615.0,12.0,75.0,-22.0,-521.0
713.0,228.0,-1915.0,615.0,13.0,69.0,-23.0,-554.0
714.0,233.0,-1915.0,633.0,7.0,76.0,-22.0,-580.0
715.0,235.0,-1927.0,610.0,-2.0,76.0,-27.0,-611.0
716.0,233.0,-1917.0,618.0,4.0,82.0,-22.0,-659.0
717.0,227.0,-1925.0,616.0,9.0,84.0,-26.0,-713.0
718.0,244.0,-1912.0,617.0,0.0,84.0,-28.0,-768.0
719.0,224.0,-1921.0,633.0,-2.0,95.0,-26.0,-805.0
720.0,241.0,-1909.0,624.0,-15.0,93.0,-31.0,-837.0
721.0,238.0,-1923.0,634.0,-19.0,111.0,-33.0,-857.0
722.0,219.0,-1929.0,642.0,-20.0,114.0,-34.0,-874.0
723.0,219.0,-1917.0,642.0,-15.0,119.0,-38.0,-880.0
724.0,226.0,-1931.0,641.0,-1.0,116.0,-26.0,-872.0
725.0,229.0,-1942.0,642.0,-1.0,113.0,-26.0,-847.0
726.0,229.0,-1938.0,624.0,-2.0,113.0,-26.0,-819.0
727.0,233.0,-1932.0,615.0,7.0,108.0,-32.0,-774.0
728.0,237.0,-1934.0,615.0,5.0,108.0,-33.0,-717.0
729.0,238.0,-1931.0,604.0,2.0,111.0,-36.0,-639.0
730.0,223.0,-1922.0,632.0,0.0,113.0,-38.0,-546.0
731.0,218.0,-1903.0,608.0,-11.0,118.0,-38.0,-444.0
732.0,222.0,-1905.0,611.0,-13.0,122.0,-35.0,-340.0
733.0,237.0,-1904.0,611.0,-22.0,120.0,-40.0,-225.0
734.0,230.0,-1905.0,613.0,-18.0,125.0,-41.0,-107.0
735.0,232.0,-1916.0,616.0,-24.0,126.0,-35.0,10.0
736.0,236.0,-1915.0,625.0,-28.0,129.0,-44.0,100.0
737.0,235.0,-1908.0,627.0,-27.0,128.0,-41.0,161.0
738.0,224.0,-1924.0,625.0,-27.0,124.0,-41.0,202.0
739.0,228.0,-1934.0,628.0,-25.0,132.0,-39.0,245.0
740.0,217.0,-1926.0,623.0,-24.0,132.0,-41.0,298.0
741.0,227.0,-1931.0,621.0,-20.0,141.0,-43.0,341.0
742.0,233.0,-1933.0,631.0,-15.0,139.0,-46.0,373.0
743.0,222.0,-1927.0,606.0,-22.0,145.0,-46.0,389.0
744.0,236.0,-1923.0,638.0,-14.0,148.0,-41.0,404.0
745.0,222.0,-1922.0,635.0,-14.0,148.0,-40.0,422.0
746.0,213.0,-1918.0,610.0,-17.0,149.0,-47.0,431.0
747.0,219.0,-1933.0,628.0,-15.0,150.0,-48.0,423.0
748.0,225.0,-1922.0,632.0,-14.0,154.0,-50.0,402.0
749.0,209.0,-1915.0,649.0,-5.0,158.0,-47.0,390.0
750.0,245.0,-1930.0,629.0,-15.0,151.0,-48.0,389.0
751.0,234.0,-1921.0,641.0,-16.0,150.0,-49.0,390.0
752.0,221.0,-1916.0,638.0,-8.0,151.0,-47.0,378.0
753.0,233.0,-1930.0,639.0,-15.0,147.0,-50.0,361.0
754.0,222.0,-1922.0,634.0,-8.0,142.0,-45.0,347.0
755.0,231.0,-1927.0,626.0,-8.0,142.0,-48.0,344.0
756.0,218.0,-1924.0,627.0,-13.0,150.0,-48.0,341.0
757.0,226.0,-1929.0,639.0,-9.0,144.0,-53.0,333.0
758.0,220.0,-1924.0,621.0,-15.0,152.0,-50.0,316.0
759.0,219.0,-1931.0,623.0,-8.0,144.0,-55.0,300.0
760.0,232.0,-1928.0,635.0,-7.0,145.0,-50.0,292.0
761.0,217.0,-1919.0,628.0,-11.0,146.0,-49.0,291.0
762.0,223.0,-1941.0,623.0,-10.0,147.0,-51.0,288.0
763.0,227.0,-1929.0,623.0,-9.0,141.0,-51.0,284.0
764.0,228.0,-1926.0,608.0,-16.0,141.0,-57.0,284.0
765.0,231.0,-1942.0,635.0,-2.0,144.0,-51.0,291.0
766.0,242.0,-1928.0,623.0,-8.0,136.0,-53.0,296.0
767.0,232.0,-1922.0,644.0,0.0,137.0,-56.0,290.0
768.0,233.0,-1922.0,621.0,-3.0,135.0,-56.0,277.0
769.0,234.0,-1923.0,639.0,1.0,137.0,-53.0,267.0
770.0,221.0,-1930.0,640.0,-1.0,140.0,-58.0,268.0
771.0,221.0,-1934.0,640.0,-2.0,136.0,-58.0,279.0
772.0,232.0,-1932.0,651.0,-1.0,139.0,-52.0,286.0
773.0,231.0,-1938.0,632.0,2.0,134.0,-50.0,290.0
774.0,227.0,-1935.0,629.0,5.0,134.0,-54.0,293.0
775.0,226.0,-1924.0,629.0,8.0,137.0,-53.0,304.0
776.0,219.0,-1934.0,637.0,4.0,139.0,-53.0,318.0
777.0,234.0,-1931.0,634.0,9.0,140.0,-54.0,328.0
778.0,240.0,-1940.0,638.0,7.0,143.0,-56.0,326.0
779.0,232.0,-1924.0,641.0,7.0,141.0,-51.0,320.0
780.0,244.0,-1936.0,631.0,11.0,138.0,-50.0,319.0
781.0,248.0,-1912.0,620.0,7.0,142.0,-55.0,330.0
782.0,231.0,-1933.0,631.0,4.0,132.0,-50.0,338.0
783.0,225.0,-1927.0,641.0,9.0,136.0,-54.0,345.0
784.0,220.0,-1923.0,630.0,0.0,129.0,-51.0,343.0
785.0,227.0,-1913.0,622.0,-2.0,133.0,-48.0,343.0
786.0,241.0,-1910.0,638.0,-2.0,136.0,-55.0,347.0
787.0,215.0,-1923.0,636.0,-1.0,138.0,-46.0,348.0
788.0,221.0,-1924.0,618.0,2.0,135.0,-44.0,343.0
789.0,229.0,-1932.0,649.0,0.0,133.0,-47.0,332.0
790.0,229.0,-1927.0,627.0,-4.0,136.0,-48.0,325.0
791.0,231.0,-1926.0,633.0,-6.0,138.0,-46.0,327.0
792.0,231.0,-1927.0,629.0,-1.0,135.0,-46.0,330.0
793.0,229.0,-1937.0,633.0,-2.0,129.0,-45.0,324.0
794.0,226.0,-1907.0,621.0,3.0,133.0,-48.0,312.0
795.0,242.0,-1917.0,623.0,3.0,129.0,-46.0,307.0
796.0,228.0,-1925.0,615.0,-4.0,138.0,-43.0,315.0
797.0,232.0,-1912.0,627.0,-6.0,132.0,-45.0,324.0
798.0,239.0,-1927.0,628.0,-3.0,129.0,-46.0,318.0
799.0,225.0,-1927.0,624.0,-9.0,128.0,-48.0,305.0
800.0,243.0,-1935.0,618.0,-10.0,132.0,-39.0,291.0
801.0,225.0,-1924.0,631.0,-9.0,126.0,-42.0,283.0
802.0,227.0,-1924.0,623.0,-8.0,120.0,-38.0,278.0
803.0,229.0,-1930.0,629.0,-12.0,118.0,-43.0,264.0
804.0,220.0,-1918.0,617.0,-15.0,121.0,-38.0,253.0
805.0,226.0,-1929.0,639.0,-17.0,118.0,-39.0,254.0
806.0,216.0,-1914.0,629.0,-10.0,116.0,-36.0,268.0
807.0,222.0,-1924.0,626.0,-14.0,118.0,-40.0,279.0
808.0,215.0,-1931.0,637.0,-25.0,115.0,-34.0,271.0
809.0,226.0,-1922.0,624.0,-22.0,118.0,-38.0,248.0
810.0,229.0,-1915.0,628.0,-19.0,113.0,-41.0,229.0
811.0,221.0,-1916.0,619.0,-20.0,114.0,-30.0,226.0
812.0,220.0,-1920.0,642.0,-22.0,117.0,-34.0,231.0
813.0,226.0,-1930.0,622.0,-23.0,117.0,-36.0,229.0
814.0,228.0,-1905.0,621.0,-22.0,112.0,-32.0,216.0
815.0,225.0,-1923.0,609.0,-26.0,116.0,-36.0,199.0
816.0,232.0,-1912.0,630.0,-20.0,112.0,-28.0,193.0
817.0,215.0,-1910.0,610.0,-25.0,109.0,-31.0,191.0
818.0,233.0,-1929.0,619.0,-24.0,109.0,-31.0,193.0
819.0,236.0,-1909.0,636.0,-29.0,106.0,-29.0,185.0
820.0,225.0,-1920.0,631.0,-25.0,102.0,-28.0,172.0
821.0,220.0,-1932.0,615.0,-29.0,94.0,-30.0,164.0
822.0,222.0,-1920.0,618.0,-29.0,95.0,-27.0,164.0
823.0,211.0,-1927.0,621.0,-31.0,88.0,-24.0,163.0
824.0,233.0,-1911.0,625.0,-27.0,86.0,-27.0,156.0
825.0,237.0,-1908.0,628.0,-28.0,80.0,-25.0,142.0
826.0,220.0,-1924.0,625.0,-24.0,82.0,-22.0,138.0
827.0,227.0,-1933.0,641.0,-23.0,79.0,-24.0,141.0
828.0,211.0,-1936.0,627.0,-21.0,75.0,-25.0,140.0
829.0,212.0,-1935.0,620.0,-27.0,74.0,-20.0,127.0
830.0,218.0,-1933.0,635.0,-22.0,74.0,-22.0,109.0
831.0,218.0,-1938.0,607.0,-22.0,69.0,-26.0,103.0
832.0,219.0,-1933.0,618.0,-19.0,66.0,-27.0,106.0
833.0,222.0,-1926.0,608.0,-14.0,76.0,-25.0,107.0
834.0,222.0,-1935.0,617.0,-19.0,72.0,-25.0,97.0
835.0,236.0,-1926.0,598.0,-12.0,63.0,-24.0,79.0
836.0,224.0,-1933.0,620.0,-9.0,68.0,-18.0,71.0
837.0,216.0,-1934.0,617.0,-15.0,66.0,-24.0,72.0
838.0,220.0,-1927.0,611.0,-16.0,61.0,-20.0,75.0
839.0,228.0,-1933.0,608.0,-12.0,58.0,-19.0,75.0
840.0,233.0,-1927.0,609.0,-8.0,61.0,-21.0,79.0
841.0,235.0,-1923.0,605.0,-14.0,52.0,-23.0,88.0
842.0,233.0,-1922.0,608.0,-8.0,51.0,-23.0,96.0
843.0,224.0,-1933.0,611.0,-12.0,53.0,-27.0,90.0
844.0,242.0,-1918.0,611.0,-13.0,56.0,-28.0,59.0
845.0,228.0,-1927.0,621.0,-13.0,47.0,-24.0,25.0
846.0,229.0,-1913.0,638.0,-14.0,48.0,-28.0,21.0
847.0,218.0,-1934.0,643.0,-15.0,45.0,-20.0,67.0
848.0,243.0,-1925.0,654.0,-22.0,34.0,-17.0,141.0
849.0,220.0,-1931.0,667.0,-24.0,39.0,-16.0,209.0
850.0,231.0,-1931.0,689.0,-14.0,39.0,-11.0,243.0
851.0,232.0,-1942.0,683.0,-8.0,36.0,-18.0,235.0
852.0,230.0,-1962.0,677.0,4.0,33.0,-19.0,211.0
853.0,229.0,-1978.0,648.0,23.0,33.0,-7.0,188.0
854.0,240.0,-1978.0,610.0,44.0,16.0,-9.0,169.0
855.0,246.0,-1982.0,567.0,63.0,12.0,-6.0,153.0
856.0,225.0,-1958.0,599.0,64.0,20.0,-14.0,131.0
857.0,232.0,-1966.0,565.0,83.0,33.0,-15.0,106.0
858.0,232.0,-1960.0,525.0,91.0,33.0,-16.0,80.0
859.0,239.0,-1933.0,524.0,83.0,31.0,-19.0,49.0
860.0,217.0,-1890.0,597.0,57.0,30.0,-18.0,18.0
861.0,213.0,-1870.0,662.0,13.0,30.0,-15.0,-5.0
862.0,208.0,-1867.0,721.0,-18.0,24.0,-14.0,-17.0
863.0,215.0,-1870.0,722.0,-35.0,8.0,-13.0,-24.0
864.0,219.0,-1887.0,725.0,-46.0,6.0,-19.0,-35.0
865.0,222.0,-1921.0,690.0,-22.0,10.0,-12.0,-55.0
866.0,232.0,-1940.0,641.0,7.0,24.0,-8.0,-79.0
867.0,234.0,-1950.0,622.0,21.0,26.0,-6.0,-96.0
868.0,235.0,-1942.0,610.0,32.0,21.0,-4.0,-96.0
869.0,228.0,-1945.0,603.0,32.0,12.0,-4.0,-82.0
870.0,228.0,-1926.0,603.0,24.0,7.0,-2.0,-67.0
871.0,229.0,-1921.0,563.0,26.0,19.0,0.0,-78.0
872.0,235.0,-1914.0,564.0,19.0,25.0,-1.0,-152.0
873.0,216.0,-1914.0,551.0,25.0,36.0,-8.0,-329.0
874.0,222.0,-1897.0,552.0,13.0,42.0,7.0,-620.0
875.0,224.0,-1887.0,591.0,-5.0,44.0,2.0,-945.0
876.0,217.0,-1901.0,617.0,-12.0,44.0,2.0,-1168.0
877.0,221.0,-1901.0,613.0,-23.0,40.0,1.0,-963.0
878.0,226.0,-1919.0,629.0,-14.0,27.0,7.0,109.0
879.0,219.0,-1909.0,639.0,-23.0,28.0,7.0,2057.0
880.0,221.0,-1927.0,635.0,-18.0,14.0,9.0,4306.0
881.0,240.0,-1915.0,624.0,-13.0,19.0,8.0,5940.0
882.0,227.0,-1912.0,637.0,-22.0,10.0,9.0,6332.0
883.0,238.0,-1915.0,645.0,-16.0,7.0,14.0,5569.0
884.0,219.0,-1922.0,649.0,-22.0,-6.0,11.0,4254.0
885.0,235.0,-1929.0,648.0,-20.0,-12.0,14.0,2969.0
886.0,241.0,-1922.0,644.0,-17.0,-7.0,8.0,1964.0
887.0,229.0,-1921.0,650.0,-16.0,-9.0,17.0,1163.0
888.0,226.0,-1932.0,649.0,-11.0,-16.0,14.0,469.0
889.0,224.0,-1934.0,633.0,-5.0,-17.0,21.0,-74.0
890.0,227.0,-1932.0,627.0,-1.0,-26.0,14.0,-481.0
891.0,234.0,-1934.0,627.0,5.0,-29.0,18.0,-767.0
892.0,230.0,-1953.0,622.0,1.0,-31.0,16.0,-933.0
893.0,234.0,-1941.0,623.0,13.0,-34.0,18.0,-1002.0
894.0,223.0,-1948.0,610.0,11.0,-39.0,17.0,-1022.0
895.0,234.0,-1934.0,611.0,8.0,-39.0,20.0,-1050.0
896.0,223.0,-1947.0,612.0,3.0,-37.0,17.0,-1088.0
897.0,220.0,-1934.0,598.0,9.0,-36.0,13.0,-1111.0
898.0,217.0,-1926.0,616.0,11.0,-39.0,15.0,-1114.0
899.0,218.0,-1935.0,594.0,15.0,-39.0,16.0,-1104.0
900.0,214.0,-1919.0,610.0,10.0,-31.0,12.0,-1100.0
901.0,223.0,-1928.0,607.0,0.0,-29.0,12.0,-1103.0
902.0,219.0,-1931.0,607.0,8.0,-27.0,14.0,-1108.0
903.0,218.0,-1937.0,624.0,1.0,-25.0,20.0,-1107.0
904.0,221.0,-1926.0,595.0,1.0,-25.0,15.0,-1098.0
905.0,235.0,-1920.0,613.0,-5.0,-23.0,20.0,-1091.0
906.0,214.0,-1915.0,601.0,-9.0,-26.0,17.0,-1093.0
907.0,230.0,-1918.0,613.0,-12.0,-21.0,17.0,-1094.0
908.0,235.0,-1926.0,620.0,-11.0,-23.0,20.0,-1090.0
909.0,224.0,-1931.0,632.0,-14.0,-23.0,20.0,-1079.0
910.0,228.0,-1919.0,626.0,-12.0,-24.0,22.0,-1079.0
911.0,225.0,-1930.0,616.0,-13.0,-27.0,20.0,-1092.0
912.0,233.0,-1928.0,624.0,-17.0,-29.0,25.0,-1111.0
913.0,221.0,-1929.0,612.0,-11.0,-34.0,19.0,-1127.0
914.0,217.0,-1921.0,623.0,-6.0,-28.0,22.0,-1133.0
915.0,228.0,-1910.0,619.0,-8.0,-33.0,23.0,-1142.0
916.0,226.0,-1920.0,631.0,-4.0,-34.0,26.0,-1165.0
917.0,224.0,-1928.0,614.0,-5.0,-35.0,21.0,-1200.0
918.0,221.0,-1927.0,628.0,-17.0,-33.0,18.0,-1231.0
919.0,234.0,-1925.0,638.0,-10.0,-38.0,20.0,-1256.0
920.0,221.0,-1921.0,646.0,-9.0,-44.0,19.0,-1290.0
921.0,235.0,-1920.0,637.0,-4.0,-40.0,20.0,-1336.0
922.0,234.0,-1932.0,629.0,-10.0,-50.0,24.0,-1392.0
923.0,227.0,-1923.0,617.0,-12.0,-43.0,22.0,-1442.0
924.0,219.0,-1927.0,637.0,-11.0,-43.0,19.0,-1477.0
925.0,217.0,-1927.0,631.0,-11.0,-47.0,24.0,-1511.0
926.0,215.0,-1934.0,644.0,-13.0,-39.0,18.0,-1541.0
927.0,212.0,-1935.0,648.0,-5.0,-33.0,23.0,-1559.0
928.0,215.0,-1955.0,621.0,3.0,-32.0,20.0,-1561.0
929.0,225.0,-1930.0,640.0,4.0,-42.0,26.0,-1543.0
930.0,232.0,-1929.0,632.0,-4.0,-57.0,29.0,-1521.0
931.0,228.0,-1939.0,625.0,1.0,-64.0,29.0,-1491.0
932.0,231.0,-1946.0,626.0,11.0,-66.0,28.0,-1448.0
933.0,231.0,-1952.0,619.0,20.0,-66.0,24.0,-1382.0
934.0,236.0,-1921.0,591.0,23.0,-64.0,22.0,-1284.0
935.0,214.0,-1926.0,605.0,17.0,-57.0,23.0,-1174.0
936.0,226.0,-1919.0,599.0,16.0,-54.0,17.0,-1068.0
937.0,225.0,-1923.0,605.0,12.0,-51.0,22.0,-963.0
938.0,227.0,-1926.0,604.0,8.0,-56.0,21.0,-852.0
939.0,216.0,-1922.0,625.0,-2.0,-47.0,20.0,-739.0
940.0,216.0,-1906.0,633.0,-10.0,-54.0,22.0,-637.0
941.0,238.0,-1931.0,644.0,-8.0,-52.0,21.0,-552.0
942.0,229.0,-1919.0,638.0,-8.0,-51.0,22.0,-492.0
943.0,223.0,-1929.0,636.0,-7.0,-62.0,18.0,-440.0
944.0,217.0,-1932.0,630.0,2.0,-56.0,26.0,-386.0
945.0,230.0,-1927.0,633.0,7.0,-62.0,19.0,-336.0
946.0,223.0,-1921.0,625.0,2.0,-51.0,21.0,-298.0
947.0,235.0,-1913.0,627.0,4.0,-53.0,19.0,-272.0
948.0,239.0,-1923.0,630.0,-3.0,-52.0,18.0,-256.0
949.0,220.0,-1910.0,617.0,-2.0,-52.0,23.0,-234.0
950.0,217.0,-1927.0,632.0,0.0,-42.0,21.0,-209.0
951.0,226.0,-1926.0,607.0,-1.0,-38.0,23.0,-193.0
952.0,214.0,-1926.0,627.0,-5.0,-41.0,22.0,-195.0
953.0,216.0,-1921.0,619.0,-8.0,-39.0,24.0,-202.0
954.0,229.0,-1915.0,627.0,-8.0,-40.0,19.0,-205.0
955.0,231.0,-1926.0,629.0,-6.0,-37.0,20.0,-198.0
956.0,231.0,-1924.0,635.0,-6.0,-40.0,22.0,-192.0
957.0,236.0,-1911.0,617.0,-10.0,-40.0,25.0,-198.0
958.0,231.0,-1931.0,630.0,-6.0,-43.0,17.0,-210.0
959.0,235.0,-1924.0,624.0,-4.0,-41.0,21.0,-212.0
960.0,228.0,-1933.0,623.0,0.0,-43.0,21.0,-211.0
961.0,221.0,-1930.0,628.0,-2.0,-41.0,17.0,-211.0
962.0,230.0,-1929.0,638.0,-3.0,-41.0,15.0,-225.0
963.0,220.0,-1928.0,634.0,1.0,-44.0,20.0,-245.0
964.0,227.0,-1929.0,620.0,-4.0,-40.0,21.0,-257.0
965.0,233.0,-1920.0,610.0,-5.0,-39.0,19.0,-248.0
966.0,229.0,-1925.0,635.0,-2.0,-37.0,15.0,-236.0
967.0,222.0,-1914.0,640.0,1.0,-38.0,22.0,-242.0
968.0,233.0,-1925.0,634.0,-3.0,-34.0,21.0,-257.0
969.0,231.0,-1922.0,622.0,-1.0,-43.0,17.0,-268.0
970.0,219.0,-1930.0,622.0,-2.0,-38.0,23.0,-264.0
971.0,235.0,-1918.0,606.0,4.0,-36.0,16.0,-247.0
972.0,221.0,-1926.0,628.0,1.0,-38.0,23.0,-240.0
973.0,240.0,-1922.0,641.0,-7.0,-36.0,15.0,-242.0
974.0,231.0,-1926.0,620.0,2.0,-38.0,17.0,-250.0
975.0,224.0,-1924.0,629.0,0.0,-39.0,20.0,-239.0
976.0,229.0,-1930.0,631.0,6.0,-37.0,14.0,-226.0
977.0,228.0,-1925.0,614.0,0.0,-39.0,15.0,-211.0
978.0,221.0,-1938.0,630.0,2.0,-41.0,17.0,-208.0
979.0,231.0,-1935.0,623.0,3.0,-38.0,19.0,-202.0
980.0,222.0,-1929.0,603.0,10.0,-37.0,15.0,-190.0
981.0,223.0,-1928.0,627.0,9.0,-36.0,19.0,-168.0
982.0,233.0,-1916.0,620.0,3.0,-36.0,12.0,-156.0
983.0,234.0,-1929.0,628.0,-1.0,-33.0,11.0,-153.0
984.0,230.0,-1929.0,615.0,2.0,-36.0,11.0,-156.0
985.0,228.0,-1923.0,628.0,0.0,-33.0,10.0,-148.0
986.0,227.0,-1924.0,619.0,-2.0,-34.0,9.0,-136.0
987.0,231.0,-1921.0,624.0,-6.0,-29.0,16.0,-122.0
988.0,232.0,-1928.0,613.0,0.0,-34.0,12.0,-117.0
989.0,239.0,-1924.0,628.0,-8.0,-28.0,10.0,-110.0
990.0,219.0,-1918.0,603.0,2.0,-30.0,6.0,-96.0
991.0,228.0,-1930.0,614.0,1.0,-24.0,10.0,-80.0
992.0,227.0,-1925.0,612.0,-9.0,-25.0,10.0,-79.0
993.0,224.0,-1924.0,612.0,-1.0,-28.0,9.0,-86.0
994.0,230.0,-1920.0,623.0,-7.0,-27.0,4.0,-97.0
995.0,235.0,-1929.0,598.0,-9.0,-24.0,11.0,-93.0
996.0,226.0,-1921.0,612.0,-4.0,-24.0,7.0,-77.0
997.0,221.0,-1917.0,617.0,-5.0,-22.0,14.0,-61.0
998.0,226.0,-1924.0,599.0,-3.0,-19.0,6.0,-55.0
999.0,228.0,-1929.0,613.0,-12.0,-17.0,5.0,-55.0
1000.0,218.0,-1930.0,614.0,-8.0,-15.0,5.0,-52.0
1001.0,211.0,-1934.0,605.0,-13.0,-10.0,7.0,-39.0
1002.0,228.0,-1920.0,620.0,-10.0,-12.0,4.0,-30.0
1003.0,227.0,-1934.0,612.0,-11.0,-9.0,7.0,-30.0
1004.0,219.0,-1926.0,639.0,-11.0,-14.0,9.0,-34.0
1005.0,236.0,-1925.0,607.0,-11.0,-13.0,8.0,-38.0
1006.0,235.0,-1925.0,621.0,-5.0,-15.0,4.0,-36.0
1007.0,222.0,-1928.0,623.0,-3.0,-12.0,7.0,-31.0
1008.0,230.0,-1927.0,603.0,-2.0,-4.0,9.0,-29.0
1009.0,220.0,-1917.0,614.0,-9.0,-5.0,8.0,-31.0
1010.0,214.0,-1934.0,621.0,-9.0,-2.0,10.0,-27.0
1011.0,225.0,-1915.0,620.0,-9.0,-3.0,6.0,-15.0
1012.0,222.0,-1929.0,626.0,-6.0,-1.0,8.0,-10.0
1013.0,229.0,-1931.0,625.0,-12.0,4.0,3.0,-13.0
1014.0,231.0,-1933.0,607.0,-8.0,8.0,7.0,-23.0
1015.0,239.0,-1936.0,613.0,-6.0,7.0,5.0,-20.0
1016.0,224.0,-1950.0,605.0,-6.0,5.0,7.0,-7.0
1017.0,236.0,-1936.0,613.0,0.0,6.0,10.0,9.0
1018.0,226.0,-1930.0,629.0,-1.0,-2.0,5.0,14.0
1019.0,236.0,-1942.0,600.0,-3.0,6.0,6.0,4.0
1020.0,233.0,-1927.0,600.0,-8.0,5.0,4.0,-5.0
1021.0,249.0,-1929.0,617.0,-7.0,2.0,1.0,-4.0
1022.0,229.0,-1947.0,616.0,-12.0,11.0,5.0,6.0
1023.0,235.0,-1938.0,608.0,-10.0,10.0,0.0,17.0
1024.0,239.0,-1931.0,623.0,-6.0,5.0,6.0,14.0
1025.0,235.0,-1934.0,624.0,-11.0,6.0,0.0,9.0
1026.0,238.0,-1934.0,608.0,-13.0,4.0,1.0,6.0
1027.0,228.0,-1917.0,628.0,-14.0,5.0,-2.0,11.0
1028.0,222.0,-1929.0,615.0,-13.0,1.0,5.0,17.0
1029.0,236.0,-1930.0,617.0,-10.0,6.0,2.0,19.0
1030.0,238.0,-1933.0,623.0,-15.0,8.0,6.0,23.0
1031.0,226.0,-1923.0,616.0,-3.0,13.0,-2.0,28.0
1032.0,224.0,-1931.0,611.0,-9.0,10.0,3.0,30.0
1033.0,217.0,-1939.0,617.0,-6.0,16.0,2.0,27.0
1034.0,228.0,-1926.0,604.0,-2.0,18.0,-1.0,17.0
1035.0,216.0,-1940.0,593.0,-1.0,11.0,6.0,8.0
1036.0,234.0,-1923.0,616.0,1.0,21.0,3.0,9.0
1037.0,225.0,-1942.0,580.0,-3.0,18.0,0.0,21.0
1038.0,221.0,-1940.0,607.0,-1.0,28.0,-1.0,26.0
1039.0,222.0,-1914.0,601.0,-4.0,22.0,4.0,25.0
1040.0,223.0,-1935.0,587.0,-8.0,29.0,2.0,26.0
1041.0,238.0,-1934.0,602.0,-5.0,19.0,-4.0,38.0
1042.0,223.0,-1927.0,583.0,-8.0,27.0,-1.0,59.0
1043.0,238.0,-1921.0,595.0,3.0,20.0,0.0,65.0
1044.0,230.0,-1927.0,609.0,-10.0,29.0,-5.0,42.0
1045.0,229.0,-1930.0,605.0,-4.0,27.0,-6.0,8.0
1046.0,233.0,-1924.0,608.0,-7.0,31.0,-7.0,-9.0
1047.0,232.0,-1916.0,621.0,-9.0,32.0,-2.0,18.0
1048.0,225.0,-1915.0,645.0,-17.0,29.0,-9.0,81.0
1049.0,223.0,-1924.0,649.0,-18.0,20.0,-3.0,153.0
1050.0,229.0,-1919.0,665.0,-27.0,19.0,-2.0,207.0
1051.0,223.0,-1930.0,673.0,-28.0,19.0,-4.0,228.0
1052.0,222.0,-1933.0,681.0,-19.0,19.0,-4.0,222.0
1053.0,219.0,-1952.0,653.0,-5.0,25.0,-2.0,197.0
1054.0,220.0,-1971.0,630.0,13.0,12.0,-2.0,169.0
1055.0,241.0,-1978.0,561.0,33.0,11.0,1.0,147.0
1056.0,234.0,-1961.0,531.0,42.0,3.0,-7.0,138.0
1057.0,243.0,-1945.0,556.0,52.0,24.0,-8.0,133.0
1058.0,234.0,-1964.0,513.0,62.0,32.0,-15.0,114.0
1059.0,238.0,-1927.0,501.0,68.0,43.0,-17.0,77.0
1060.0,238.0,-1920.0,501.0,60.0,42.0,-16.0,41.0
1061.0,227.0,-1892.0,559.0,22.0,41.0,-18.0,13.0
1062.0,208.0,-1858.0,664.0,-9.0,36.0,-22.0,-2.0
1063.0,195.0,-1869.0,717.0,-47.0,27.0,-18.0,-3.0
1064.0,209.0,-1877.0,723.0,-51.0,15.0,-11.0,-8.0
1065.0,214.0,-1899.0,707.0,-53.0,27.0,-14.0,-18.0
1066.0,210.0,-1936.0,675.0,-36.0,43.0,-9.0,-22.0
1067.0,218.0,-1926.0,650.0,-15.0,53.0,-14.0,-21.0
1068.0,237.0,-1936.0,620.0,2.0,49.0,-11.0,-23.0
1069.0,222.0,-1948.0,601.0,8.0,44.0,-11.0,-27.0
1070.0,225.0,-1933.0,597.0,4.0,40.0,-5.0,-33.0
1071.0,235.0,-1924.0,602.0,3.0,36.0,-6.0,-33.0
1072.0,235.0,-1915.0,564.0,-2.0,46.0,-7.0,-53.0
1073.0,231.0,-1912.0,546.0,9.0,57.0,-8.0,-148.0
1074.0,224.0,-1898.0,538.0,1.0,73.0,-3.0,-367.0
1075.0,230.0,-1901.0,544.0,-12.0,76.0,-10.0,-684.0
1076.0,226.0,-1897.0,576.0,-31.0,75.0,-5.0,-985.0
1077.0,214.0,-1896.0,585.0,-32.0,76.0,-5.0,-1082.0
1078.0,214.0,-1919.0,611.0,-47.0,74.0,-3.0,-574.0
1079.0,233.0,-1920.0,622.0,-40.0,63.0,-1.0,854.0
1080.0,221.0,-1939.0,639.0,-31.0,61.0,-7.0,2988.0
1081.0,237.0,-1938.0,626.0,-23.0,55.0,-1.0,5083.0
1082.0,229.0,-1942.0,634.0,-20.0,53.0,0.0,6257.0
1083.0,223.0,-1947.0,642.0,-22.0,46.0,-2.0,6144.0
1084.0,217.0,-1941.0,643.0,-15.0,40.0,0.0,5101.0
1085.0,221.0,-1966.0,662.0,-24.0,35.0,1.0,3773.0
1086.0,231.0,-1947.0,655.0,-14.0,29.0,7.0,2643.0
1087.0,228.0,-1941.0,652.0,-11.0,27.0,1.0,1786.0
1088.0,230.0,-1941.0,644.0,-2.0,30.0,4.0,1061.0
1089.0,231.0,-1946.0,647.0,-2.0,21.0,0.0,428.0
1090.0,242.0,-1954.0,636.0,1.0,27.0,0.0,-57.0
1091.0,238.0,-1973.0,642.0,10.0,22.0,4.0,-416.0
1092.0,236.0,-1965.0,635.0,14.0,19.0,3.0,-636.0
1093.0,210.0,-1984.0,632.0,20.0,15.0,0.0,-749.0
1094.0,237.0,-1969.0,611.0,18.0,12.0,3.0,-794.0
1095.0,223.0,-1964.0,624.0,24.0,7.0,1.0,-823.0
1096.0,211.0,-1959.0,618.0,19.0,12.0,-4.0,-859.0
1097.0,217.0,-1956.0,618.0,26.0,12.0,-4.0,-880.0
1098.0,224.0,-1944.0,620.0,29.0,10.0,-5.0,-876.0
1099.0,226.0,-1940.0,598.0,29.0,7.0,-7.0,-864.0
1100.0,217.0,-1945.0,617.0,31.0,7.0,-9.0,-867.0
1101.0,238.0,-1937.0,619.0,30.0,5.0,-14.0,-877.0
1102.0,230.0,-1945.0,612.0,25.0,12.0,-13.0,-884.0
1103.0,221.0,-1925.0,610.0,31.0,13.0,-10.0,-869.0
1104.0,215.0,-1923.0,624.0,28.0,10.0,-15.0,-851.0
1105.0,225.0,-1925.0,603.0,32.0,15.0,-11.0,-842.0
1106.0,226.0,-1923.0,609.0,32.0,14.0,-16.0,-841.0
1107.0,210.0,-1924.0,594.0,29.0,20.0,-11.0,-843.0
1108.0,222.0,-1917.0,599.0,25.0,16.0,-14.0,-834.0
1109.0,216.0,-1914.0,606.0,24.0,14.0,-18.0,-822.0
1110.0,218.0,-1908.0,607.0,19.0,17.0,-9.0,-819.0
1111.0,209.0,-1918.0,618.0,20.0,17.0,-10.0,-829.0
1112.0,222.0,-1913.0,616.0,16.0,15.0,-14.0,-839.0
1113.0,218.0,-1928.0,595.0,12.0,19.0,-10.0,-842.0
1114.0,231.0,-1923.0,589.0,9.0,17.0,-14.0,-844.0
1115.0,217.0,-1914.0,604.0,8.0,13.0,-16.0,-855.0
1116.0,213.0,-1900.0,602.0,11.0,14.0,-8.0,-882.0
1117.0,215.0,-1914.0,606.0,14.0,19.0,-7.0,-909.0
1118.0,213.0,-1915.0,608.0,6.0,21.0,-8.0,-932.0
1119.0,226.0,-1911.0,623.0,4.0,12.0,-11.0,-951.0
1120.0,223.0,-1904.0,605.0,0.0,13.0,-7.0,-980.0
1121.0,213.0,-1922.0,612.0,-6.0,13.0,-7.0,-1026.0
1122.0,213.0,-1913.0,622.0,-5.0,8.0,-7.0,-1081.0
1123.0,216.0,-1929.0,598.0,1.0,11.0,-3.0,-1133.0
1124.0,231.0,-1918.0,622.0,-7.0,18.0,-9.0,-1172.0
1125.0,218.0,-1922.0,621.0,-1.0,13.0,-6.0,-1209.0
1126.0,206.0,-1919.0,630.0,1.0,17.0,-5.0,-1242.0
1127.0,205.0,-1919.0,638.0,-5.0,20.0,-3.0,-1265.0
1128.0,222.0,-1927.0,645.0,1.0,29.0,-1.0,-1268.0
1129.0,220.0,-1937.0,614.0,4.0,20.0,-3.0,-1261.0
1130.0,233.0,-1940.0,622.0,9.0,9.0,0.0,-1241.0
1131.0,243.0,-1942.0,640.0,-2.0,-1.0,4.0,-1216.0
1132.0,233.0,-1942.0,633.0,3.0,-5.0,3.0,-1177.0
1133.0,238.0,-1943.0,638.0,7.0,-5.0,7.0,-1119.0
1134.0,236.0,-1959.0,618.0,19.0,-6.0,1.0,-1038.0
1135.0,239.0,-1958.0,606.0,25.0,-1.0,1.0,-945.0
1136.0,228.0,-1947.0,606.0,24.0,2.0,-2.0,-844.0
1137.0,209.0,-1937.0,606.0,21.0,9.0,-1.0,-750.0
1138.0,219.0,-1934.0,607.0,11.0,10.0,-1.0,-646.0
1139.0,225.0,-1926.0,618.0,11.0,12.0,2.0,-537.0
1140.0,215.0,-1921.0,612.0,-1.0,3.0,-3.0,-429.0
1141.0,215.0,-1924.0,609.0,-7.0,3.0,-2.0,-341.0
1142.0,214.0,-1926.0,636.0,-10.0,-4.0,-2.0,-274.0
1143.0,229.0,-1932.0,626.0,-3.0,1.0,0.0,-222.0
1144.0,233.0,-1928.0,622.0,6.0,-1.0,-4.0,-170.0
1145.0,232.0,-1945.0,616.0,12.0,0.0,0.0,-123.0
1146.0,225.0,-1936.0,614.0,20.0,-1.0,-1.0,-87.0
1147.0,234.0,-1929.0,629.0,17.0,5.0,-4.0,-64.0
1148.0,230.0,-1916.0,619.0,24.0,7.0,-6.0,-50.0
1149.0,235.0,-1938.0,610.0,15.0,12.0,-3.0,-28.0
1150.0,230.0,-1921.0,632.0,14.0,15.0,1.0,-6.0
1151.0,222.0,-1939.0,621.0,13.0,14.0,-2.0,4.0
1152.0,237.0,-1939.0,622.0,16.0,12.0,-9.0,9.0
1153.0,235.0,-1932.0,642.0,17.0,10.0,-4.0,4.0
1154.0,232.0,-1920.0,635.0,15.0,11.0,0.0,10.0
1155.0,213.0,-1918.0,632.0,15.0,6.0,0.0,20.0
1156.0,231.0,-1922.0,613.0,16.0,2.0,-1.0,26.0
1157.0,243.0,-1923.0,627.0,21.0,4.0,1.0,18.0
1158.0,230.0,-1926.0,641.0,10.0,11.0,-2.0,5.0
1159.0,228.0,-1923.0,631.0,16.0,0.0,-1.0,0.0
1160.0,219.0,-1938.0,632.0,23.0,-5.0,-2.0,1.0
1161.0,214.0,-1935.0,621.0,24.0,-1.0,-1.0,3.0
1162.0,230.0,-1932.0,605.0,18.0,-5.0,-2.0,5.0
1163.0,227.0,-1928.0,620.0,20.0,-4.0,-5.0,-1.0
1164.0,220.0,-1927.0,621.0,20.0,-4.0,-5.0,2.0
1165.0,228.0,-1930.0,608.0,19.0,-8.0,-1.0,0.0
1166.0,222.0,-1915.0,605.0,8.0,-1.0,-3.0,-6.0
1167.0,226.0,-1925.0,621.0,14.0,-6.0,-2.0,-18.0
1168.0,229.0,-1916.0,605.0,16.0,-4.0,-5.0,-23.0
1169.0,224.0,-1935.0,613.0,8.0,-6.0,-2.0,-24.0
1170.0,225.0,-1912.0,607.0,5.0,-7.0,-1.0,-20.0
1171.0,213.0,-1928.0,612.0,9.0,-6.0,1.0,-20.0
1172.0,231.0,-1917.0,618.0,15.0,-12.0,-2.0,-30.0
1173.0,232.0,-1932.0,620.0,16.0,-3.0,-2.0,-38.0
1174.0,229.0,-1918.0,627.0,15.0,-8.0,-3.0,-32.0
1175.0,222.0,-1927.0,610.0,10.0,-10.0,0.0,-11.0
1176.0,223.0,-1941.0,611.0,17.0,-16.0,3.0,8.0
1177.0,232.0,-1923.0,619.0,11.0,-9.0,0.0,12.0
1178.0,241.0,-1932.0,602.0,14.0,-10.0,0.0,5.0
1179.0,232.0,-1922.0,612.0,16.0,-6.0,4.0,2.0
1180.0,222.0,-1927.0,608.0,15.0,-8.0,0.0,9.0
1181.0,225.0,-1924.0,606.0,21.0,-13.0,-3.0,24.0
1182.0,219.0,-1935.0,614.0,24.0,-15.0,2.0,34.0
1183.0,229.0,-1915.0,621.0,14.0,-8.0,-3.0,34.0
1184.0,225.0,-1919.0,618.0,17.0,-16.0,-4.0,32.0
1185.0,224.0,-1926.0,629.0,14.0,-10.0,-4.0,36.0
1186.0,217.0,-1929.0,617.0,12.0,-11.0,-1.0,52.0
1187.0,227.0,-1922.0,624.0,14.0,-8.0,-2.0,65.0
1188.0,216.0,-1925.0,629.0,12.0,-9.0,-3.0,71.0
1189.0,222.0,-1931.0,641.0,14.0,-12.0,-5.0,71.0
1190.0,234.0,-1932.0,629.0,19.0,-15.0,-3.0,74.0
1191.0,229.0,-1936.0,618.0,13.0,-12.0,3.0,80.0
1192.0,224.0,-1928.0,626.0,19.0,-12.0,-1.0,81.0
1193.0,220.0,-1936.0,629.0,14.0,-10.0,-2.0,78.0
1194.0,225.0,-1938.0,626.0,18.0,-8.0,2.0,76.0
1195.0,213.0,-1927.0,630.0,14.0,-13.0,-2.0,83.0
1196.0,226.0,-1932.0,619.0,19.0,-4.0,-1.0,99.0
1197.0,225.0,-1921.0,620.0,19.0,-11.0,3.0,105.0
1198.0,227.0,-1926.0,628.0,16.0,-7.0,-4.0,100.0
1199.0,215.0,-1930.0,619.0,10.0,-8.0,0.0,93.0
1200.0,226.0,-1935.0,620.0,23.0,-16.0,2.0,93.0
1201.0,212.0,-1936.0,607.0,14.0,-6.0,-3.0,103.0
1202.0,231.0,-1927.0,609.0,23.0,-5.0,-2.0,106.0
1203.0,216.0,-1921.0,637.0,20.0,-11.0,-4.0,93.0
1204.0,217.0,-1927.0,608.0,22.0,-9.0,1.0,71.0
1205.0,231.0,-1934.0,637.0,21.0,-14.0,5.0,64.0
1206.0,232.0,-1940.0,614.0,19.0,-7.0,-2.0,68.0
1207.0,220.0,-1928.0,636.0,22.0,-8.0,-3.0,75.0
1208.0,225.0,-1926.0,614.0,15.0,-10.0,2.0,72.0
1209.0,229.0,-1932.0,612.0,18.0,-5.0,-1.0,58.0
1210.0,219.0,-1928.0,629.0,22.0,-11.0,-4.0,46.0
1211.0,220.0,-1924.0,627.0,22.0,-5.0,3.0,45.0
1212.0,231.0,-1945.0,609.0,14.0,-5.0,2.0,51.0
1213.0,229.0,-1926.0,637.0,13.0,-8.0,-3.0,54.0
1214.0,230.0,-1933.0,620.0,14.0,-2.0,-2.0,49.0
1215.0,217.0,-1914.0,618.0,8.0,-7.0,-1.0,41.0
1216.0,230.0,-1932.0,628.0,10.0,-5.0,-7.0,36.0
1217.0,222.0,-1926.0,626.0,9.0,-1.0,-1.0,31.0
1218.0,224.0,-1932.0,618.0,6.0,-3.0,0.0,23.0
1219.0,216.0,-1916.0,630.0,12.0,-8.0,-1.0,12.0
1220.0,235.0,-1931.0,639.0,10.0,-8.0,-3.0,12.0
1221.0,232.0,-1928.0,617.0,7.0,-10.0,1.0,21.0
1222.0,233.0,-1929.0,631.0,12.0,-13.0,2.0,30.0
1223.0,224.0,-1931.0,648.0,4.0,-11.0,-1.0,27.0
1224.0,233.0,-1926.0,629.0,14.0,-10.0,0.0,15.0
1225.0,214.0,-1917.0,630.0,10.0,-13.0,3.0,1.0
1226.0,219.0,-1928.0,640.0,14.0,-11.0,3.0,-1.0
1227.0,227.0,-1927.0,634.0,16.0,-10.0,1.0,5.0
1228.0,226.0,-1928.0,633.0,20.0,-13.0,3.0,8.0
1229.0,216.0,-1928.0,624.0,20.0,-10.0,-2.0,-6.0
1230.0,223.0,-1937.0,615.0,13.0,-8.0,-3.0,-24.0
1231.0,219.0,-1926.0,621.0,18.0,-12.0,5.0,-38.0
1232.0,224.0,-1929.0,621.0,17.0,-8.0,0.0,-44.0
1233.0,231.0,-1927.0,617.0,23.0,-13.0,-1.0,-44.0
1234.0,225.0,-1939.0,618.0,23.0,-13.0,1.0,-50.0
1235.0,235.0,-1922.0,610.0,22.0,-11.0,4.0,-47.0
1236.0,244.0,-1924.0,601.0,33.0,-15.0,1.0,-31.0
1237.0,250.0,-1914.0,621.0,29.0,-14.0,0.0,-10.0
1238.0,235.0,-1927.0,610.0,31.0,-10.0,-9.0,-6.0
1239.0,240.0,-1906.0,619.0,33.0,-6.0,-4.0,-27.0
1240.0,233.0,-1924.0,624.0,22.0,-4.0,-7.0,-61.0
1241.0,242.0,-1917.0,636.0,15.0,-5.0,0.0,-72.0
1242.0,234.0,-1911.0,626.0,11.0,-3.0,-3.0,-38.0
1243.0,229.0,-1914.0,649.0,10.0,-5.0,-5.0,31.0
1244.0,226.0,-1923.0,663.0,4.0,-11.0,-8.0,103.0
1245.0,228.0,-1921.0,645.0,4.0,-14.0,-2.0,156.0
1246.0,228.0,-1927.0,677.0,6.0,-11.0,-8.0,184.0
1247.0,223.0,-1931.0,677.0,8.0,-6.0,-2.0,189.0
1248.0,215.0,-1934.0,674.0,19.0,-13.0,-3.0,175.0
1249.0,231.0,-1934.0,643.0,30.0,-9.0,-1.0,142.0
1250.0,246.0,-1963.0,606.0,43.0,-15.0,-1.0,103.0
1251.0,257.0,-1958.0,563.0,51.0,-28.0,10.0,75.0
1252.0,253.0,-1954.0,567.0,60.0,-28.0,4.0,55.0
1253.0,244.0,-1965.0,561.0,73.0,-5.0,-4.0,29.0
1254.0,238.0,-1972.0,516.0,84.0,-2.0,-5.0,-5.0
1255.0,252.0,-1941.0,510.0,95.0,3.0,-13.0,-38.0
1256.0,213.0,-1892.0,583.0,72.0,5.0,-12.0,-64.0
1257.0,213.0,-1864.0,680.0,28.0,7.0,-15.0,-78.0
1258.0,198.0,-1859.0,735.0,-9.0,14.0,-15.0,-94.0
1259.0,201.0,-1880.0,730.0,-28.0,8.0,-7.0,-112.0
1260.0,205.0,-1894.0,677.0,-26.0,21.0,-1.0,-128.0
1261.0,217.0,-1900.0,673.0,-24.0,48.0,-7.0,-131.0
1262.0,212.0,-1927.0,637.0,-27.0,63.0,-9.0,-124.0
1263.0,209.0,-1914.0,634.0,-11.0,53.0,-2.0,-120.0
1264.0,229.0,-1921.0,636.0,-6.0,46.0,-2.0,-115.0
1265.0,241.0,-1914.0,641.0,-7.0,38.0,3.0,-108.0
1266.0,238.0,-1914.0,608.0,-10.0,43.0,-1.0,-98.0
1267.0,248.0,-1914.0,586.0,-3.0,43.0,-4.0,-111.0
1268.0,248.0,-1920.0,550.0,-2.0,49.0,-2.0,-208.0
1269.0,235.0,-1902.0,559.0,2.0,50.0,-2.0,-419.0
1270.0,229.0,-1893.0,581.0,-8.0,54.0,0.0,-720.0
1271.0,223.0,-1890.0,583.0,-12.0,50.0,-1.0,-1028.0
1272.0,228.0,-1895.0,611.0,-27.0,44.0,-1.0,-1196.0
1273.0,236.0,-1911.0,618.0,-20.0,38.0,1.0,-837.0
1274.0,223.0,-1918.0,635.0,-17.0,32.0,1.0,399.0
1275.0,226.0,-1928.0,666.0,-8.0,22.0,2.0,2364.0
1276.0,219.0,-1945.0,645.0,1.0,17.0,7.0,4377.0
1277.0,229.0,-1943.0,668.0,6.0,11.0,0.0,5553.0
1278.0,232.0,-1944.0,666.0,11.0,5.0,1.0,5494.0
1279.0,228.0,-1947.0,659.0,12.0,3.0,0.0,4530.0
1280.0,227.0,-1943.0,660.0,16.0,-1.0,-3.0,3319.0
1281.0,227.0,-1942.0,652.0,17.0,-5.0,3.0,2332.0
1282.0,235.0,-1945.0,639.0,21.0,-3.0,0.0,1619.0
1283.0,236.0,-1935.0,660.0,23.0,-4.0,-3.0,994.0
1284.0,236.0,-1948.0,671.0,29.0,4.0,2.0,404.0
1285.0,220.0,-1937.0,655.0,23.0,-8.0,0.0,-75.0
1286.0,227.0,-1949.0,643.0,29.0,-6.0,-1.0,-427.0
1287.0,237.0,-1956.0,654.0,35.0,-8.0,0.0,-635.0
1288.0,233.0,-1945.0,623.0,34.0,-6.0,1.0,-730.0
1289.0,215.0,-1948.0,643.0,29.0,-12.0,1.0,-761.0
1290.0,220.0,-1949.0,635.0,36.0,-14.0,1.0,-766.0
1291.0,224.0,-1937.0,620.0,39.0,-19.0,0.0,-779.0
1292.0,226.0,-1948.0,626.0,42.0,-16.0,-3.0,-788.0
1293.0,230.0,-1941.0,632.0,42.0,-12.0,5.0,-787.0
1294.0,225.0,-1930.0,606.0,37.0,-10.0,0.0,-789.0
1295.0,230.0,-1921.0,611.0,40.0,-7.0,-6.0,-800.0
1296.0,227.0,-1908.0,614.0,38.0,-9.0,-2.0,-807.0
1297.0,225.0,-1926.0,607.0,30.0,2.0,-2.0,-796.0
1298.0,227.0,-1916.0,616.0,22.0,1.0,-3.0,-780.0
1299.0,219.0,-1907.0,615.0,32.0,7.0,-4.0,-772.0
1300.0,230.0,-1901.0,605.0,33.0,6.0,-1.0,-779.0
1301.0,239.0,-1893.0,617.0,20.0,8.0,-8.0,-787.0
1302.0,232.0,-1904.0,615.0,20.0,6.0,-3.0,-784.0
1303.0,252.0,-1910.0,627.0,14.0,8.0,-5.0,-764.0
1304.0,217.0,-1900.0,640.0,15.0,8.0,-2.0,-754.0
1305.0,236.0,-1904.0,644.0,14.0,8.0,-4.0,-761.0
1306.0,214.0,-1905.0,630.0,10.0,4.0,-3.0,-785.0
1307.0,238.0,-1899.0,629.0,9.0,8.0,-2.0,-801.0
1308.0,228.0,-1908.0,631.0,12.0,13.0,-4.0,-801.0
1309.0,224.0,-1913.0,619.0,12.0,8.0,0.0,-793.0
1310.0,214.0,-1908.0,629.0,11.0,10.0,-1.0,-801.0
1311.0,212.0,-1917.0,617.0,12.0,9.0,-6.0,-820.0
1312.0,214.0,-1918.0,623.0,10.0,9.0,1.0,-844.0
1313.0,218.0,-1915.0,630.0,7.0,10.0,-2.0,-861.0
1314.0,217.0,-1908.0,643.0,8.0,9.0,2.0,-887.0
1315.0,231.0,-1915.0,624.0,5.0,9.0,0.0,-927.0
1316.0,233.0,-1907.0,613.0,4.0,5.0,4.0,-984.0
1317.0,214.0,-1925.0,638.0,2.0,3.0,-5.0,-1030.0
1318.0,238.0,-1909.0,632.0,-5.0,0.0,3.0,-1067.0
1319.0,229.0,-1922.0,648.0,-10.0,1.0,6.0,-1095.0
1320.0,219.0,-1913.0,652.0,-11.0,0.0,0.0,-1135.0
1321.0,226.0,-1915.0,664.0,-10.0,4.0,1.0,-1174.0
1322.0,218.0,-1916.0,652.0,1.0,11.0,-4.0,-1198.0
1323.0,217.0,-1945.0,631.0,8.0,5.0,-1.0,-1197.0
1324.0,227.0,-1930.0,648.0,17.0,0.0,2.0,-1180.0
1325.0,239.0,-1927.0,651.0,11.0,-9.0,8.0,-1161.0
1326.0,237.0,-1935.0,642.0,8.0,-15.0,2.0,-1144.0
1327.0,230.0,-1945.0,652.0,11.0,-7.0,2.0,-1111.0
1328.0,239.0,-1953.0,652.0,16.0,-19.0,4.0,-1058.0
1329.0,231.0,-1951.0,636.0,17.0,-16.0,3.0,-981.0
1330.0,226.0,-1933.0,626.0,20.0,-13.0,5.0,-885.0
1331.0,229.0,-1943.0,600.0,36.0,-13.0,1.0,-786.0
1332.0,224.0,-1922.0,612.0,32.0,-9.0,-4.0,-684.0
1333.0,236.0,-1922.0,618.0,18.0,0.0,-1.0,-584.0
1334.0,228.0,-1916.0,631.0,8.0,0.0,-3.0,-478.0
1335.0,213.0,-1909.0,632.0,-1.0,6.0,0.0,-389.0
1336.0,224.0,-1915.0,643.0,-5.0,6.0,4.0,-317.0
1337.0,218.0,-1919.0,648.0,-8.0,0.0,1.0,-260.0
1338.0,231.0,-1925.0,658.0,-8.0,-5.0,4.0,-209.0
1339.0,232.0,-1941.0,646.0,4.0,1.0,0.0,-160.0
1340.0,235.0,-1920.0,639.0,4.0,0.0,1.0,-113.0
1341.0,227.0,-1917.0,640.0,11.0,2.0,0.0,-79.0
1342.0,247.0,-1917.0,637.0,4.0,1.0,1.0,-53.0
1343.0,257.0,-1924.0,641.0,6.0,8.0,3.0,-35.0
1344.0,228.0,-1928.0,634.0,-3.0,11.0,2.0,-18.0
1345.0,236.0,-1907.0,667.0,-7.0,12.0,4.0,-11.0
1346.0,230.0,-1907.0,651.0,-4.0,9.0,2.0,-15.0
1347.0,235.0,-1922.0,650.0,3.0,14.0,4.0,-15.0
1348.0,232.0,-1911.0,642.0,-2.0,9.0,6.0,-5.0
1349.0,229.0,-1913.0,661.0,7.0,8.0,2.0,17.0
1350.0,225.0,-1914.0,657.0,5.0,6.0,-2.0,32.0
1351.0,230.0,-1922.0,656.0,7.0,1.0,4.0,25.0
1352.0,237.0,-1924.0,651.0,5.0,12.0,-1.0,2.0
1353.0,236.0,-1915.0,628.0,13.0,-3.0,5.0,-15.0
1354.0,224.0,-1931.0,635.0,14.0,4.0,0.0,-17.0
1355.0,235.0,-1930.0,636.0,13.0,0.0,-4.0,-6.0
1356.0,239.0,-1917.0,637.0,14.0,5.0,-3.0,1.0
1357.0,228.0,-1908.0,628.0,12.0,-2.0,-2.0,-2.0
1358.0,239.0,-1927.0,628.0,15.0,-3.0,5.0,-5.0
1359.0,230.0,-1915.0,632.0,3.0,0.0,3.0,1.0
1360.0,225.0,-1920.0,626.0,1.0,0.0,1.0,15.0
1361.0,223.0,-1916.0,641.0,6.0,-5.0,-3.0,22.0
1362.0,220.0,-1917.0,635.0,4.0,-2.0,1.0,18.0
1363.0,236.0,-1927.0,642.0,1.0,0.0,0.0,12.0
1364.0,225.0,-1920.0,631.0,-2.0,4.0,0.0,22.0
1365.0,229.0,-1918.0,640.0,-6.0,0.0,1.0,46.0
1366.0,230.0,-1915.0,628.0,3.0,-4.0,-6.0,61.0
1367.0,248.0,-1932.0,635.0,4.0,3.0,3.0,54.0
1368.0,222.0,-1924.0,633.0,4.0,7.0,0.0,32.0
1369.0,230.0,-1933.0,653.0,4.0,0.0,2.0,23.0
1370.0,229.0,-1913.0,654.0,-2.0,0.0,-5.0,33.0
1371.0,233.0,-1923.0,628.0,4.0,3.0,-1.0,49.0
1372.0,232.0,-1922.0,639.0,7.0,0.0,2.0,58.0
1373.0,239.0,-1906.0,639.0,5.0,1.0,1.0,68.0
1374.0,232.0,-1916.0,643.0,6.0,1.0,-2.0,80.0
1375.0,231.0,-1930.0,644.0,10.0,1.0,2.0,98.0
1376.0,234.0,-1937.0,618.0,7.0,0.0,0.0,102.0
1377.0,234.0,-1914.0,651.0,7.0,9.0,0.0,91.0
1378.0,219.0,-1904.0,646.0,8.0,4.0,-5.0,80.0
1379.0,228.0,-1919.0,649.0,9.0,5.0,-3.0,86.0
1380.0,246.0,-1920.0,625.0,4.0,2.0,-4.0,104.0
1381.0,235.0,-1929.0,643.0,5.0,-2.0,-2.0,119.0
1382.0,232.0,-1923.0,638.0,7.0,-2.0,-1.0,113.0
1383.0,217.0,-1919.0,649.0,4.0,-2.0,-3.0,99.0
1384.0,230.0,-1924.0,632.0,5.0,-3.0,1.0,87.0
1385.0,232.0,-1925.0,649.0,7.0,-3.0,-3.0,96.0
1386.0,235.0,-1910.0,650.0,3.0,-1.0,-1.0,114.0
1387.0,222.0,-1921.0,628.0,5.0,-3.0,-3.0,129.0
1388.0,235.0,-1932.0,641.0,15.0,-1.0,-3.0,134.0
1389.0,227.0,-1920.0,634.0,6.0,-2.0,-3.0,131.0
1390.0,218.0,-1917.0,635.0,-1.0,0.0,-1.0,122.0
1391.0,224.0,-1930.0,618.0,10.0,-1.0,-3.0,116.0
1392.0,218.0,-1922.0,630.0,7.0,2.0,0.0,108.0
1393.0,213.0,-1929.0,641.0,4.0,-3.0,-5.0,106.0
1394.0,226.0,-1925.0,635.0,1.0,-3.0,-2.0,114.0
1395.0,223.0,-1920.0,632.0,0.0,2.0,-1.0,128.0
1396.0,227.0,-1910.0,637.0,3.0,-1.0,2.0,130.0
1397.0,234.0,-1913.0,634.0,2.0,-4.0,-3.0,119.0
1398.0,231.0,-1926.0,625.0,3.0,1.0,-2.0,101.0
1399.0,239.0,-1932.0,633.0,-6.0,-4.0,-3.0,98.0
1400.0,231.0,-1917.0,643.0,1.0,-5.0,0.0,116.0
1401.0,227.0,-1914.0,637.0,1.0,-3.0,-6.0,136.0
1402.0,238.0,-1916.0,640.0,-4.0,-12.0,-1.0,135.0
1403.0,228.0,-1921.0,641.0,1.0,-3.0,-2.0,108.0
1404.0,221.0,-1921.0,641.0,3.0,-11.0,2.0,73.0
1405.0,224.0,-1918.0,634.0,9.0,-7.0,-2.0,55.0
1406.0,228.0,-1926.0,631.0,7.0,-9.0,-4.0,59.0
1407.0,235.0,-1915.0,647.0,6.0,-6.0,8.0,62.0
1408.0,223.0,-1917.0,623.0,3.0,-4.0,1.0,59.0
1409.0,239.0,-1920.0,621.0,7.0,-6.0,1.0,52.0
1410.0,222.0,-1909.0,615.0,7.0,-7.0,0.0,48.0
1411.0,222.0,-1918.0,623.0,4.0,-11.0,0.0,44.0
1412.0,224.0,-1920.0,638.0,5.0,-9.0,-5.0,34.0
1413.0,234.0,-1917.0,619.0,2.0,-11.0,-3.0,17.0
1414.0,232.0,-1919.0,637.0,5.0,-13.0,-1.0,12.0
1415.0,248.0,-1911.0,633.0,7.0,-8.0,-5.0,30.0
1416.0,227.0,-1915.0,631.0,5.0,-11.0,-5.0,59.0
1417.0,235.0,-1925.0,627.0,8.0,-10.0,-3.0,70.0
1418.0,233.0,-1918.0,636.0,13.0,-2.0,-2.0,48.0
1419.0,238.0,-1922.0,638.0,4.0,-2.0,-7.0,12.0
1420.0,238.0,-1930.0,650.0,3.0,4.0,0.0,-5.0
1421.0,242.0,-1921.0,644.0,1.0,-2.0,-7.0,29.0
1422.0,225.0,-1924.0,655.0,5.0,-4.0,-3.0,106.0
1423.0,235.0,-1914.0,671.0,-2.0,-5.0,-1.0,180.0
1424.0,229.0,-1928.0,670.0,-1.0,-8.0,-6.0,228.0
1425.0,225.0,-1923.0,675.0,-5.0,-3.0,-2.0,239.0
1426.0,214.0,-1937.0,667.0,8.0,-8.0,-2.0,225.0
1427.0,220.0,-1951.0,670.0,11.0,-10.0,4.0,201.0
1428.0,229.0,-1945.0,662.0,19.0,-12.0,5.0,174.0
1429.0,240.0,-1951.0,624.0,37.0,-22.0,6.0,142.0
1430.0,258.0,-1945.0,583.0,48.0,-37.0,9.0,111.0
1431.0,244.0,-1939.0,592.0,48.0,-33.0,6.0,79.0
1432.0,237.0,-1962.0,574.0,69.0,-21.0,4.0,56.0
1433.0,246.0,-1960.0,542.0,82.0,-16.0,-5.0,28.0
1434.0,248.0,-1938.0,497.0,95.0,-10.0,-5.0,-4.0
1435.0,230.0,-1882.0,583.0,66.0,-7.0,-11.0,-25.0
1436.0,218.0,-1870.0,702.0,16.0,5.0,-10.0,-37.0
1437.0,194.0,-1871.0,730.0,-13.0,7.0,-10.0,-48.0
1438.0,220.0,-1890.0,708.0,-23.0,18.0,-5.0,-72.0
1439.0,228.0,-1893.0,678.0,-22.0,27.0,-1.0,-101.0
1440.0,213.0,-1898.0,666.0,-23.0,51.0,-5.0,-121.0
1441.0,214.0,-1914.0,651.0,-21.0,61.0,-2.0,-125.0
1442.0,225.0,-1899.0,636.0,-14.0,61.0,-1.0,-112.0
1443.0,229.0,-1900.0,645.0,-20.0,48.0,-1.0,-100.0
1444.0,231.0,-1898.0,639.0,-27.0,42.0,5.0,-91.0
1445.0,234.0,-1900.0,636.0,-24.0,45.0,6.0,-91.0
1446.0,242.0,-1911.0,599.0,-18.0,43.0,-1.0,-123.0
1447.0,257.0,-1895.0,586.0,-11.0,50.0,1.0,-232.0
1448.0,253.0,-1903.0,571.0,-11.0,56.0,0.0,-454.0
1449.0,227.0,-1882.0,581.0,-16.0,55.0,-3.0,-760.0
1450.0,239.0,-1888.0,594.0,-20.0,52.0,2.0,-1056.0
1451.0,225.0,-1887.0,615.0,-22.0,43.0,1.0,-1141.0
1452.0,226.0,-1905.0,624.0,-25.0,36.0,-1.0,-575.0
1453.0,223.0,-1925.0,660.0,-18.0,29.0,1.0,879.0
1454.0,219.0,-1930.0,654.0,-15.0,25.0,3.0,2902.0
1455.0,222.0,-1938.0,661.0,-8.0,12.0,0.0,4681.0
1456.0,238.0,-1936.0,679.0,-2.0,10.0,0.0,5410.0
1457.0,230.0,-1947.0,661.0,-1.0,8.0,-1.0,4949.0
1458.0,240.0,-1943.0,668.0,8.0,10.0,4.0,3840.0
1459.0,240.0,-1937.0,670.0,3.0,6.0,5.0,2730.0
1460.0,234.0,-1938.0,658.0,-1.0,7.0,3.0,1940.0
1461.0,232.0,-1936.0,667.0,6.0,1.0,3.0,1350.0
1462.0,234.0,-1942.0,669.0,10.0,-4.0,2.0,743.0
1463.0,238.0,-1939.0,662.0,6.0,-1.0,2.0,161.0
1464.0,239.0,-1942.0,650.0,10.0,-3.0,2.0,-292.0
1465.0,242.0,-1937.0,660.0,15.0,-2.0,-1.0,-587.0
1466.0,238.0,-1943.0,641.0,15.0,-10.0,4.0,-729.0
1467.0,233.0,-1947.0,657.0,21.0,-7.0,4.0,-784.0
1468.0,228.0,-1936.0,649.0,24.0,-13.0,1.0,-797.0
1469.0,229.0,-1933.0,632.0,24.0,-7.0,0.0,-814.0
1470.0,225.0,-1935.0,625.0,24.0,-7.0,3.0,-853.0
1471.0,227.0,-1947.0,622.0,18.0,-4.0,-3.0,-886.0
1472.0,232.0,-1929.0,629.0,26.0,-1.0,0.0,-890.0
1473.0,219.0,-1928.0,628.0,27.0,-1.0,-2.0,-879.0
1474.0,240.0,-1922.0,628.0,15.0,4.0,0.0,-872.0
1475.0,223.0,-1921.0,601.0,18.0,3.0,-5.0,-869.0
1476.0,226.0,-1918.0,621.0,11.0,13.0,-3.0,-871.0
1477.0,236.0,-1904.0,598.0,11.0,12.0,-4.0,-864.0
1478.0,237.0,-1898.0,606.0,11.0,13.0,2.0,-849.0
1479.0,234.0,-1905.0,620.0,-1.0,19.0,-2.0,-833.0
1480.0,244.0,-1889.0,611.0,-3.0,25.0,1.0,-822.0
1481.0,238.0,-1892.0,627.0,-4.0,18.0,1.0,-816.0
1482.0,231.0,-1906.0,641.0,-9.0,25.0,2.0,-815.0
1483.0,236.0,-1905.0,640.0,-13.0,22.0,1.0,-822.0
1484.0,220.0,-1904.0,645.0,-7.0,20.0,-2.0,-839.0
1485.0,223.0,-1907.0,662.0,-12.0,16.0,5.0,-858.0
1486.0,229.0,-1906.0,642.0,-10.0,20.0,4.0,-872.0
1487.0,231.0,-1911.0,648.0,-15.0,23.0,4.0,-870.0
1488.0,220.0,-1904.0,623.0,-9.0,25.0,-2.0,-858.0
1489.0,228.0,-1924.0,637.0,0.0,28.0,-2.0,-850.0
1490.0,225.0,-1919.0,635.0,-5.0,22.0,-2.0,-858.0
1491.0,223.0,-1922.0,640.0,-5.0,17.0,1.0,-882.0
1492.0,232.0,-1910.0,620.0,-7.0,19.0,2.0,-908.0
1493.0,236.0,-1921.0,639.0,-9.0,19.0,1.0,-934.0
1494.0,236.0,-1917.0,645.0,-11.0,10.0,3.0,-963.0
1495.0,229.0,-1924.0,641.0,-14.0,14.0,3.0,-1007.0
1496.0,232.0,-1921.0,644.0,-19.0,12.0,0.0,-1053.0
1497.0,223.0,-1915.0,634.0,-22.0,9.0,3.0,-1087.0
1498.0,237.0,-1925.0,654.0,-23.0,10.0,2.0,-1103.0
1499.0,220.0,-1921.0,662.0,-23.0,10.0,3.0,-1112.0
1500.0,214.0,-1929.0,658.0,-23.0,15.0,0.0,-1130.0
1501.0,229.0,-1947.0,653.0,-8.0,18.0,0.0,-1151.0
1502.0,230.0,-1952.0,637.0,3.0,14.0,6.0,-1159.0
1503.0,228.0,-1932.0,642.0,-1.0,1.0,4.0,-1142.0
1504.0,234.0,-1934.0,661.0,-5.0,-9.0,7.0,-1108.0
1505.0,234.0,-1940.0,651.0,-1.0,-12.0,8.0,-1074.0
1506.0,239.0,-1941.0,625.0,1.0,-11.0,1.0,-1037.0
1507.0,237.0,-1946.0,637.0,5.0,-16.0,1.0,-979.0
1508.0,223.0,-1934.0,645.0,17.0,-16.0,5.0,-888.0
1509.0,242.0,-1936.0,616.0,10.0,-14.0,5.0,-775.0
1510.0,231.0,-1938.0,621.0,20.0,-15.0,-1.0,-673.0
1511.0,229.0,-1931.0,608.0,13.0,-7.0,0.0,-586.0
1512.0,225.0,-1919.0,623.0,11.0,5.0,-3.0,-501.0
1513.0,223.0,-1909.0,616.0,7.0,2.0,-6.0,-412.0
1514.0,225.0,-1909.0,633.0,-8.0,9.0,-2.0,-328.0
1515.0,229.0,-1917.0,660.0,-16.0,14.0,3.0,-276.0
1516.0,224.0,-1937.0,659.0,-15.0,10.0,2.0,-253.0
1517.0,243.0,-1933.0,644.0,-10.0,9.0,4.0,-238.0
1518.0,237.0,-1925.0,635.0,-7.0,9.0,4.0,-203.0
1519.0,231.0,-1918.0,662.0,-8.0,16.0,0.0,-154.0
1520.0,235.0,-1925.0,647.0,-7.0,13.0,3.0,-119.0
1521.0,234.0,-1914.0,652.0,-7.0,19.0,2.0,-101.0
1522.0,230.0,-1923.0,656.0,-7.0,16.0,0.0,-101.0
1523.0,218.0,-1925.0,649.0,-10.0,16.0,10.0,-93.0
1524.0,236.0,-1910.0,653.0,-12.0,10.0,3.0,-72.0
1525.0,243.0,-1907.0,651.0,-8.0,19.0,6.0,-56.0
1526.0,237.0,-1910.0,646.0,-12.0,14.0,4.0,-58.0
1527.0,231.0,-1914.0,659.0,-10.0,18.0,3.0,-63.0
1528.0,241.0,-1913.0,643.0,-7.0,18.0,8.0,-64.0
1529.0,242.0,-1925.0,647.0,-12.0,17.0,3.0,-59.0
1530.0,236.0,-1912.0,650.0,-11.0,14.0,4.0,-60.0
1531.0,219.0,-1923.0,642.0,-5.0,10.0,0.0,-66.0
1532.0,227.0,-1915.0,645.0,-6.0,9.0,-1.0,-72.0
1533.0,226.0,-1919.0,650.0,-10.0,9.0,4.0,-69.0
1534.0,238.0,-1928.0,645.0,0.0,2.0,2.0,-62.0
1535.0,235.0,-1929.0,639.0,-5.0,9.0,-3.0,-66.0
1536.0,228.0,-1922.0,622.0,1.0,3.0,0.0,-79.0
1537.0,240.0,-1914.0,645.0,0.0,4.0,-2.0,-88.0
1538.0,236.0,-1923.0,648.0,-7.0,6.0,0.0,-82.0
1539.0,222.0,-1932.0,634.0,-14.0,4.0,-5.0,-71.0
1540.0,231.0,-1910.0,641.0,-1.0,9.0,1.0,-69.0
1541.0,218.0,-1924.0,646.0,-10.0,7.0,-1.0,-73.0
1542.0,229.0,-1922.0,645.0,-11.0,0.0,2.0,-68.0
1543.0,217.0,-1923.0,635.0,-9.0,11.0,2.0,-51.0
1544.0,236.0,-1923.0,631.0,-6.0,6.0,0.0,-29.0
1545.0,239.0,-1916.0,633.0,-1.0,9.0,0.0,-24.0
1546.0,235.0,-1927.0,648.0,1.0,9.0,0.0,-38.0
1547.0,229.0,-1910.0,624.0,-2.0,5.0,1.0,-58.0
1548.0,226.0,-1919.0,652.0,6.0,8.0,7.0,-63.0
1549.0,229.0,-1925.0,636.0,3.0,8.0,5.0,-58.0
1550.0,229.0,-1910.0,639.0,7.0,2.0,0.0,-46.0
1551.0,225.0,-1934.0,622.0,8.0,1.0,4.0,-38.0
1552.0,218.0,-1914.0,632.0,5.0,6.0,2.0,-37.0
1553.0,239.0,-1919.0,650.0,7.0,8.0,1.0,-32.0
1554.0,226.0,-1917.0,628.0,1.0,8.0,3.0,-20.0
1555.0,235.0,-1915.0,621.0,0.0,6.0,2.0,-5.0
1556.0,222.0,-1919.0,640.0,-3.0,3.0,2.0,0.0
1557.0,229.0,-1921.0,634.0,-5.0,4.0,2.0,4.0
1558.0,222.0,-1920.0,656.0,-8.0,1.0,2.0,14.0
1559.0,220.0,-1921.0,637.0,-12.0,3.0,-3.0,32.0
1560.0,226.0,-1921.0,642.0,-11.0,1.0,0.0,45.0
1561.0,227.0,-1917.0,635.0,-9.0,0.0,-1.0,44.0
1562.0,239.0,-1928.0,644.0,-17.0,1.0,0.0,33.0
1563.0,222.0,-1911.0,645.0,-12.0,4.0,1.0,32.0
1564.0,225.0,-1925.0,652.0,-20.0,3.0,5.0,46.0
1565.0,226.0,-1917.0,643.0,-16.0,3.0,-1.0,74.0
1566.0,225.0,-1917.0,618.0,-15.0,-4.0,1.0,93.0
1567.0,233.0,-1932.0,642.0,-14.0,-4.0,3.0,92.0
1568.0,234.0,-1929.0,639.0,-14.0,-3.0,1.0,82.0
1569.0,225.0,-1932.0,638.0,-16.0,-4.0,0.0,85.0
1570.0,222.0,-1931.0,648.0,-9.0,-5.0,4.0,94.0
1571.0,217.0,-1943.0,658.0,-9.0,-7.0,1.0,103.0
1572.0,222.0,-1915.0,646.0,-2.0,-1.0,3.0,99.0
1573.0,222.0,-1938.0,636.0,-6.0,1.0,6.0,93.0
1574.0,224.0,-1922.0,639.0,-3.0,2.0,0.0,98.0
1575.0,216.0,-1932.0,619.0,-2.0,3.0,-2.0,122.0
1576.0,220.0,-1924.0,607.0,-2.0,0.0,4.0,137.0
1577.0,240.0,-1923.0,603.0,1.0,2.0,1.0,138.0
1578.0,216.0,-1916.0,622.0,-1.0,1.0,-3.0,129.0
1579.0,229.0,-1915.0,597.0,1.0,-4.0,2.0,126.0
1580.0,233.0,-1908.0,627.0,6.0,1.0,-1.0,141.0
1581.0,237.0,-1920.0,627.0,-6.0,2.0,2.0,165.0
1582.0,244.0,-1921.0,612.0,-8.0,2.0,-2.0,175.0
1583.0,240.0,-1904.0,620.0,-8.0,6.0,1.0,172.0
1584.0,237.0,-1902.0,637.0,-6.0,5.0,3.0,162.0
1585.0,246.0,-1920.0,627.0,-8.0,6.0,0.0,154.0
1586.0,238.0,-1909.0,643.0,-11.0,1.0,-3.0,157.0
1587.0,224.0,-1912.0,656.0,-11.0,5.0,1.0,168.0
1588.0,233.0,-1914.0,646.0,-4.0,2.0,-3.0,206.0
1589.0,236.0,-1921.0,678.0,-11.0,-6.0,0.0,279.0
1590.0,228.0,-1926.0,684.0,-15.0,-7.0,0.0,369.0
1591.0,227.0,-1928.0,676.0,-3.0,-3.0,1.0,430.0
1592.0,217.0,-1936.0,678.0,-6.0,-8.0,3.0,434.0
1593.0,229.0,-1943.0,679.0,1.0,-2.0,0.0,396.0
1594.0,230.0,-1940.0,655.0,9.0,-2.0,4.0,351.0
1595.0,244.0,-1946.0,625.0,12.0,1.0,5.0,321.0
1596.0,247.0,-1965.0,601.0,29.0,-12.0,6.0,301.0
1597.0,249.0,-1954.0,569.0,30.0,-21.0,8.0,272.0
1598.0,229.0,-1945.0,567.0,33.0,-14.0,3.0,225.0
1599.0,237.0,-1976.0,539.0,59.0,3.0,-1.0,179.0
1600.0,250.0,-1947.0,508.0,77.0,2.0,-2.0,154.0
1601.0,238.0,-1918.0,550.0,70.0,-4.0,-2.0,140.0
1602.0,212.0,-1881.0,658.0,28.0,-1.0,-16.0,125.0
1603.0,185.0,-1868.0,744.0,-10.0,9.0,-10.0,96.0
1604.0,197.0,-1872.0,735.0,-43.0,13.0,-9.0,71.0
1605.0,206.0,-1915.0,695.0,-46.0,23.0,-1.0,66.0
1606.0,216.0,-1899.0,683.0,-44.0,50.0,-2.0,70.0
1607.0,211.0,-1922.0,661.0,-29.0,65.0,2.0,69.0
1608.0,214.0,-1936.0,631.0,-5.0,56.0,6.0,53.0
1609.0,240.0,-1916.0,652.0,-5.0,54.0,5.0,41.0
1610.0,217.0,-1918.0,649.0,-2.0,46.0,7.0,38.0
1611.0,235.0,-1913.0,632.0,-7.0,35.0,3.0,50.0
1612.0,242.0,-1914.0,594.0,-6.0,34.0,4.0,41.0
1613.0,239.0,-1890.0,574.0,-6.0,45.0,2.0,-17.0
1614.0,248.0,-1898.0,566.0,-7.0,51.0,-1.0,-160.0
1615.0,243.0,-1891.0,575.0,-5.0,51.0,-1.0,-393.0
1616.0,244.0,-1880.0,592.0,-18.0,55.0,-1.0,-676.0
1617.0,227.0,-1881.0,606.0,-20.0,45.0,3.0,-922.0
1618.0,220.0,-1892.0,605.0,-29.0,44.0,0.0,-883.0
1619.0,219.0,-1898.0,631.0,-27.0,42.0,-3.0,-92.0
1620.0,222.0,-1926.0,658.0,-34.0,32.0,6.0,1594.0
1621.0,227.0,-1932.0,654.0,-20.0,30.0,7.0,3706.0
1622.0,224.0,-1939.0,637.0,-16.0,27.0,4.0,5346.0
1623.0,234.0,-1949.0,643.0,-12.0,18.0,1.0,5786.0
1624.0,227.0,-1946.0,653.0,-13.0,16.0,-1.0,5078.0
1625.0,239.0,-1924.0,656.0,-9.0,14.0,0.0,3855.0
1626.0,245.0,-1950.0,640.0,-9.0,10.0,6.0,2737.0
1627.0,236.0,-1940.0,647.0,-8.0,5.0,0.0,1955.0
1628.0,226.0,-1939.0,660.0,-6.0,-1.0,4.0,1337.0
1629.0,239.0,-1952.0,655.0,-7.0,6.0,5.0,724.0
1630.0,218.0,-1932.0,635.0,2.0,-5.0,5.0,191.0
1631.0,227.0,-1950.0,650.0,8.0,6.0,-1.0,-202.0
1632.0,238.0,-1953.0,657.0,13.0,-3.0,1.0,-461.0
1633.0,218.0,-1948.0,652.0,11.0,-4.0,5.0,-608.0
1634.0,224.0,-1955.0,626.0,18.0,-6.0,1.0,-691.0
1635.0,239.0,-1951.0,630.0,18.0,-7.0,2.0,-723.0
1636.0,235.0,-1933.0,629.0,17.0,-9.0,-1.0,-733.0
1637.0,235.0,-1945.0,610.0,21.0,-4.0,2.0,-746.0
1638.0,229.0,-1934.0,614.0,23.0,-9.0,-1.0,-758.0
1639.0,228.0,-1939.0,617.0,19.0,2.0,-2.0,-769.0
1640.0,233.0,-1923.0,621.0,25.0,-1.0,2.0,-772.0
1641.0,223.0,-1926.0,618.0,15.0,4.0,-5.0,-772.0
1642.0,231.0,-1925.0,617.0,13.0,8.0,1.0,-763.0
1643.0,233.0,-1914.0,610.0,8.0,7.0,-2.0,-750.0
1644.0,240.0,-1912.0,613.0,4.0,11.0,-4.0,-737.0
1645.0,233.0,-1909.0,623.0,2.0,16.0,-3.0,-725.0
1646.0,227.0,-1905.0,615.0,1.0,21.0,-1.0,-714.0
1647.0,223.0,-1926.0,610.0,-4.0,21.0,-4.0,-708.0
1648.0,223.0,-1908.0,625.0,-4.0,18.0,1.0,-712.0
1649.0,223.0,-1911.0,633.0,-5.0,19.0,-2.0,-724.0
1650.0,213.0,-1902.0,625.0,0.0,14.0,5.0,-730.0
1651.0,232.0,-1914.0,619.0,-2.0,13.0,1.0,-723.0
1652.0,216.0,-1909.0,632.0,-3.0,13.0,4.0,-707.0
1653.0,221.0,-1907.0,629.0,-11.0,16.0,4.0,-696.0
1654.0,230.0,-1914.0,634.0,-10.0,19.0,-2.0,-695.0
1655.0,227.0,-1917.0,635.0,-12.0,16.0,2.0,-711.0
1656.0,215.0,-1922.0,621.0,-6.0,11.0,4.0,-727.0
1657.0,222.0,-1916.0,626.0,-6.0,13.0,-5.0,-750.0
1658.0,232.0,-1928.0,616.0,0.0,17.0,2.0,-768.0
1659.0,221.0,-1927.0,642.0,-5.0,15.0,-2.0,-796.0
1660.0,227.0,-1917.0,636.0,1.0,12.0,2.0,-825.0
1661.0,232.0,-1922.0,620.0,-5.0,10.0,-1.0,-856.0
1662.0,228.0,-1925.0,629.0,1.0,7.0,3.0,-889.0
1663.0,239.0,-1914.0,639.0,-5.0,7.0,1.0,-933.0
1664.0,225.0,-1918.0,634.0,-11.0,8.0,4.0,-980.0
1665.0,218.0,-1930.0,650.0,-13.0,9.0,2.0,-1010.0
1666.0,230.0,-1930.0,637.0,-21.0,6.0,2.0,-1018.0
1667.0,222.0,-1924.0,631.0,-15.0,14.0,2.0,-1010.0
1668.0,216.0,-1934.0,677.0,-7.0,21.0,-3.0,-999.0
1669.0,221.0,-1953.0,633.0,-2.0,18.0,3.0,-998.0
1670.0,232.0,-1959.0,622.0,11.0,6.0,5.0,-993.0
1671.0,220.0,-1936.0,660.0,1.0,-2.0,9.0,-966.0
1672.0,231.0,-1940.0,645.0,-7.0,-6.0,5.0,-912.0
1673.0,230.0,-1963.0,646.0,5.0,-12.0,5.0,-840.0
1674.0,225.0,-1951.0,640.0,7.0,-17.0,1.0,-767.0
1675.0,232.0,-1940.0,634.0,15.0,-14.0,5.0,-692.0
1676.0,219.0,-1939.0,627.0,20.0,-13.0,5.0,-605.0
1677.0,238.0,-1922.0,592.0,24.0,-5.0,1.0,-500.0
1678.0,219.0,-1923.0,599.0,22.0,0.0,-3.0,-389.0
1679.0,226.0,-1905.0,617.0,8.0,11.0,-10.0,-295.0
1680.0,212.0,-1909.0,608.0,-6.0,9.0,-4.0,-219.0
1681.0,209.0,-1903.0,648.0,-14.0,12.0,-6.0,-161.0
1682.0,213.0,-1907.0,663.0,-16.0,7.0,0.0,-112.0
1683.0,226.0,-1927.0,640.0,-13.0,6.0,1.0,-72.0
1684.0,229.0,-1922.0,654.0,-13.0,7.0,0.0,-40.0
1685.0,228.0,-1929.0,636.0,-2.0,8.0,0.0,-13.0
1686.0,235.0,-1917.0,613.0,0.0,5.0,2.0,11.0
1687.0,240.0,-1921.0,641.0,-5.0,9.0,-3.0,37.0
1688.0,242.0,-1924.0,627.0,5.0,13.0,-5.0,55.0
1689.0,234.0,-1925.0,634.0,-3.0,18.0,-2.0,59.0
1690.0,218.0,-1915.0,635.0,0.0,9.0,6.0,50.0
1691.0,247.0,-1909.0,632.0,-5.0,20.0,5.0,42.0
1692.0,223.0,-1921.0,635.0,-9.0,13.0,1.0,49.0
1693.0,226.0,-1918.0,640.0,-8.0,19.0,5.0,63.0
1694.0,226.0,-1915.0,640.0,-6.0,17.0,0.0,70.0
1695.0,225.0,-1927.0,650.0,-4.0,12.0,9.0,68.0
1696.0,231.0,-1910.0,636.0,-7.0,10.0,-1.0,62.0
1697.0,230.0,-1929.0,661.0,-6.0,12.0,3.0,63.0
1698.0,220.0,-1931.0,636.0,-6.0,8.0,5.0,65.0
1699.0,223.0,-1923.0,628.0,1.0,10.0,-1.0,57.0
1700.0,225.0,-1913.0,640.0,3.0,4.0,3.0,37.0
1701.0,228.0,-1935.0,623.0,5.0,3.0,0.0,21.0
1702.0,232.0,-1927.0,610.0,5.0,-1.0,-2.0,30.0
1703.0,223.0,-1917.0,637.0,1.0,0.0,0.0,52.0
1704.0,216.0,-1933.0,624.0,7.0,2.0,0.0,72.0
1705.0,217.0,-1913.0,624.0,0.0,4.0,-2.0,69.0
1706.0,221.0,-1915.0,635.0,-7.0,7.0,-4.0,60.0
1707.0,226.0,-1921.0,640.0,-2.0,6.0,-2.0,61.0
1708.0,227.0,-1913.0,641.0,-3.0,6.0,-3.0,75.0
1709.0,220.0,-1936.0,633.0,0.0,1.0,-3.0,80.0
1710.0,213.0,-1919.0,620.0,1.0,5.0,-1.0,65.0
1711.0,225.0,-1925.0,637.0,5.0,1.0,-1.0,44.0
1712.0,231.0,-1921.0,623.0,3.0,1.0,-4.0,38.0
1713.0,230.0,-1922.0,638.0,7.0,0.0,0.0,56.0
1714.0,227.0,-1938.0,644.0,8.0,6.0,7.0,78.0
1715.0,222.0,-1939.0,635.0,18.0,-1.0,0.0,88.0
1716.0,229.0,-1938.0,651.0,6.0,-2.0,6.0,78.0
1717.0,220.0,-1928.0,632.0,1.0,-1.0,-1.0,69.0
1718.0,223.0,-1927.0,621.0,9.0,-6.0,-3.0,74.0
1719.0,228.0,-1927.0,631.0,11.0,2.0,1.0,80.0
1720.0,235.0,-1938.0,645.0,5.0,0.0,2.0,85.0
1721.0,236.0,-1940.0,630.0,8.0,3.0,-1.0,82.0
1722.0,223.0,-1920.0,626.0,8.0,1.0,2.0,80.0
1723.0,213.0,-1923.0,654.0,4.0,-1.0,-3.0,86.0
1724.0,234.0,-1915.0,638.0,3.0,-2.0,-9.0,92.0
1725.0,221.0,-1916.0,645.0,-3.0,-2.0,-4.0,89.0
1726.0,232.0,-1921.0,640.0,-2.0,-4.0,-1.0,85.0
1727.0,211.0,-1927.0,652.0,-2.0,-1.0,-3.0,80.0
1728.0,235.0,-1920.0,639.0,-2.0,-6.0,-2.0,88.0
1729.0,232.0,-1938.0,637.0,3.0,-7.0,-2.0,104.0
1730.0,213.0,-1917.0,632.0,-10.0,-9.0,2.0,112.0
1731.0,228.0,-1937.0,630.0,-4.0,-10.0,0.0,112.0
1732.0,222.0,-1927.0,659.0,0.0,-12.0,0.0,107.0
1733.0,223.0,-1926.0,642.0,-7.0,-6.0,-1.0,110.0
1734.0,217.0,-1923.0,634.0,-2.0,-7.0,1.0,123.0
1735.0,227.0,-1920.0,636.0,5.0,-5.0,4.0,139.0
1736.0,216.0,-1931.0,621.0,1.0,-11.0,-3.0,151.0
1737.0,213.0,-1944.0,617.0,9.0,-15.0,-1.0,152.0
1738.0,202.0,-1922.0,622.0,2.0,-11.0,-8.0,148.0
1739.0,227.0,-1929.0,629.0,13.0,-9.0,-5.0,147.0
1740.0,226.0,-1913.0,603.0,11.0,-5.0,-1.0,143.0
1741.0,226.0,-1928.0,613.0,7.0,-4.0,-5.0,141.0
1742.0,230.0,-1926.0,617.0,16.0,-6.0,3.0,144.0
1743.0,231.0,-1916.0,604.0,10.0,-5.0,-4.0,160.0
1744.0,233.0,-1917.0,611.0,11.0,-2.0,-1.0,193.0
1745.0,221.0,-1926.0,583.0,6.0,0.0,-5.0,213.0
1746.0,238.0,-1908.0,613.0,8.0,4.0,-7.0,209.0
1747.0,228.0,-1911.0,621.0,2.0,10.0,-4.0,180.0
1748.0,226.0,-1905.0,644.0,-6.0,6.0,-4.0,150.0
1749.0,228.0,-1911.0,639.0,-12.0,10.0,-6.0,154.0
1750.0,240.0,-1918.0,656.0,-14.0,6.0,-8.0,205.0
1751.0,224.0,-1914.0,660.0,-17.0,-3.0,-1.0,286.0
1752.0,217.0,-1919.0,668.0,-13.0,-11.0,-2.0,362.0
1753.0,219.0,-1932.0,675.0,-17.0,-7.0,2.0,416.0
1754.0,233.0,-1933.0,694.0,-16.0,-6.0,0.0,427.0
1755.0,229.0,-1933.0,677.0,1.0,-1.0,2.0,403.0
1756.0,224.0,-1954.0,676.0,5.0,-4.0,1.0,353.0
1757.0,226.0,-1958.0,630.0,20.0,-2.0,7.0,307.0
1758.0,237.0,-1966.0,570.0,30.0,-8.0,5.0,265.0
1759.0,244.0,-1962.0,570.0,38.0,-21.0,7.0,234.0
1760.0,233.0,-1947.0,559.0,45.0,0.0,3.0,217.0
1761.0,236.0,-1967.0,548.0,63.0,7.0,-1.0,197.0
1762.0,237.0,-1965.0,516.0,76.0,7.0,-4.0,177.0
1763.0,233.0,-1928.0,531.0,72.0,-2.0,-6.0,155.0
1764.0,214.0,-1891.0,650.0,31.0,-1.0,-13.0,130.0
1765.0,201.0,-1876.0,743.0,-11.0,-1.0,-11.0,105.0
1766.0,204.0,-1894.0,733.0,-32.0,7.0,-2.0,80.0
1767.0,190.0,-1899.0,718.0,-41.0,14.0,-5.0,63.0
1768.0,216.0,-1917.0,702.0,-39.0,33.0,-3.0,53.0
1769.0,218.0,-1942.0,643.0,-22.0,54.0,1.0,50.0
1770.0,218.0,-1950.0,629.0,-2.0,50.0,2.0,49.0
1771.0,217.0,-1938.0,637.0,4.0,37.0,4.0,40.0
1772.0,226.0,-1928.0,643.0,9.0,28.0,8.0,32.0
1773.0,231.0,-1932.0,624.0,11.0,28.0,3.0,38.0
1774.0,240.0,-1919.0,589.0,2.0,30.0,2.0,53.0
1775.0,240.0,-1900.0,576.0,4.0,37.0,1.0,24.0
1776.0,231.0,-1893.0,558.0,0.0,46.0,1.0,-99.0
1777.0,225.0,-1889.0,573.0,-5.0,50.0,3.0,-341.0
1778.0,219.0,-1879.0,568.0,-13.0,50.0,-1.0,-650.0
1779.0,212.0,-1884.0,574.0,-27.0,49.0,3.0,-919.0
1780.0,231.0,-1887.0,599.0,-28.0,37.0,0.0,-956.0
1781.0,235.0,-1914.0,626.0,-29.0,45.0,1.0,-340.0
1782.0,237.0,-1923.0,615.0,-33.0,31.0,4.0,1176.0
1783.0,220.0,-1926.0,630.0,-24.0,26.0,0.0,3254.0
1784.0,235.0,-1927.0,633.0,-13.0,26.0,5.0,5090.0
1785.0,242.0,-1938.0,633.0,-17.0,18.0,1.0,5869.0
1786.0,239.0,-1932.0,640.0,-19.0,15.0,-1.0,5414.0
1787.0,227.0,-1936.0,651.0,-16.0,13.0,5.0,4230.0
1788.0,229.0,-1933.0,640.0,-10.0,12.0,2.0,2988.0
1789.0,228.0,-1943.0,649.0,-10.0,5.0,4.0,2060.0
1790.0,227.0,-1937.0,646.0,-6.0,0.0,9.0,1391.0
1791.0,235.0,-1951.0,657.0,-7.0,1.0,10.0,793.0
1792.0,224.0,-1960.0,653.0,-4.0,-2.0,1.0,265.0
1793.0,224.0,-1958.0,660.0,3.0,0.0,2.0,-133.0
1794.0,246.0,-1955.0,643.0,3.0,-2.0,2.0,-420.0
1795.0,236.0,-1953.0,643.0,11.0,-4.0,2.0,-597.0
1796.0,225.0,-1959.0,633.0,16.0,-17.0,2.0,-697.0
1797.0,224.0,-1956.0,637.0,20.0,-13.0,-2.0,-748.0
1798.0,233.0,-1950.0,609.0,20.0,-5.0,4.0,-782.0
1799.0,220.0,-1959.0,623.0,19.0,-5.0,3.0,-805.0
1800.0,222.0,-1949.0,618.0,22.0,0.0,2.0,-807.0
1801.0,231.0,-1937.0,605.0,24.0,2.0,-4.0,-796.0
1802.0,228.0,-1953.0,615.0,15.0,4.0,-3.0,-783.0
1803.0,226.0,-1943.0,610.0,17.0,8.0,-5.0,-778.0
1804.0,230.0,-1935.0,613.0,15.0,8.0,-1.0,-768.0
1805.0,222.0,-1924.0,621.0,12.0,14.0,-2.0,-752.0
1806.0,234.0,-1922.0,619.0,10.0,19.0,-1.0,-741.0
1807.0,228.0,-1919.0,627.0,3.0,21.0,2.0,-740.0
1808.0,237.0,-1922.0,623.0,8.0,20.0,-4.0,-746.0
1809.0,231.0,-1900.0,631.0,3.0,22.0,-1.0,-748.0
1810.0,222.0,-1914.0,631.0,0.0,22.0,3.0,-737.0
1811.0,226.0,-1901.0,611.0,6.0,23.0,-1.0,-726.0
1812.0,225.0,-1904.0,620.0,-6.0,21.0,4.0,-719.0
1813.0,225.0,-1902.0,615.0,-4.0,22.0,4.0,-728.0
1814.0,223.0,-1911.0,644.0,2.0,21.0,2.0,-730.0
1815.0,208.0,-1912.0,642.0,-2.0,9.0,-6.0,-732.0
1816.0,218.0,-1913.0,620.0,1.0,14.0,5.0,-732.0
1817.0,224.0,-1911.0,619.0,-5.0,17.0,3.0,-742.0
1818.0,225.0,-1910.0,629.0,-1.0,9.0,1.0,-762.0
1819.0,219.0,-1928.0,620.0,-1.0,13.0,3.0,-788.0
1820.0,218.0,-1921.0,624.0,-4.0,17.0,0.0,-817.0
1821.0,219.0,-1914.0,628.0,-1.0,13.0,1.0,-847.0
1822.0,224.0,-1912.0,632.0,-4.0,16.0,-2.0,-880.0
1823.0,224.0,-1930.0,630.0,-5.0,9.0,-1.0,-908.0
1824.0,217.0,-1934.0,634.0,-6.0,7.0,0.0,-934.0
1825.0,231.0,-1929.0,626.0,-6.0,4.0,0.0,-962.0
1826.0,215.0,-1922.0,637.0,-6.0,-3.0,2.0,-992.0
1827.0,226.0,-1936.0,641.0,-8.0,3.0,2.0,-1033.0
1828.0,221.0,-1925.0,656.0,-9.0,5.0,0.0,-1080.0
1829.0,219.0,-1929.0,643.0,-16.0,7.0,-6.0,-1109.0
1830.0,218.0,-1924.0,660.0,-7.0,11.0,-4.0,-1111.0
1831.0,215.0,-1944.0,652.0,-7.0,16.0,2.0,-1087.0
1832.0,223.0,-1959.0,628.0,11.0,7.0,1.0,-1056.0
1833.0,218.0,-1928.0,642.0,9.0,-6.0,4.0,-1023.0
1834.0,230.0,-1918.0,654.0,0.0,-4.0,6.0,-986.0
1835.0,232.0,-1937.0,636.0,-4.0,-13.0,7.0,-934.0
1836.0,235.0,-1948.0,643.0,2.0,-18.0,7.0,-861.0
1837.0,236.0,-1965.0,604.0,18.0,-14.0,6.0,-767.0
1838.0,223.0,-1946.0,623.0,24.0,-15.0,3.0,-669.0
1839.0,237.0,-1935.0,609.0,29.0,-8.0,-5.0,-573.0
1840.0,227.0,-1919.0,602.0,11.0,4.0,-2.0,-479.0
1841.0,227.0,-1905.0,607.0,4.0,8.0,1.0,-387.0
1842.0,215.0,-1911.0,616.0,-5.0,8.0,-1.0,-311.0
1843.0,212.0,-1909.0,635.0,-16.0,13.0,-4.0,-257.0
1844.0,228.0,-1922.0,645.0,-16.0,9.0,4.0,-222.0
1845.0,228.0,-1914.0,648.0,-22.0,9.0,5.0,-195.0
1846.0,230.0,-1928.0,637.0,-13.0,16.0,0.0,-160.0
1847.0,229.0,-1925.0,640.0,-4.0,2.0,1.0,-131.0
1848.0,234.0,-1935.0,636.0,3.0,11.0,5.0,-114.0
1849.0,231.0,-1927.0,642.0,6.0,7.0,1.0,-108.0
1850.0,227.0,-1915.0,646.0,5.0,19.0,0.0,-104.0
1851.0,232.0,-1927.0,626.0,-3.0,20.0,2.0,-85.0
1852.0,236.0,-1928.0,633.0,5.0,12.0,1.0,-70.0
1853.0,214.0,-1911.0,627.0,6.0,15.0,4.0,-71.0
1854.0,228.0,-1926.0,631.0,3.0,10.0,-1.0,-81.0
1855.0,220.0,-1892.0,640.0,-7.0,13.0,5.0,-90.0
1856.0,232.0,-1916.0,638.0,6.0,11.0,-3.0,-84.0
1857.0,225.0,-1914.0,645.0,-5.0,15.0,2.0,-71.0
1858.0,220.0,-1923.0,650.0,-1.0,6.0,-3.0,-67.0
1859.0,218.0,-1920.0,633.0,2.0,10.0,3.0,-77.0
1860.0,215.0,-1926.0,631.0,-4.0,6.0,0.0,-92.0
1861.0,225.0,-1919.0,624.0,2.0,5.0,0.0,-96.0
1862.0,220.0,-1914.0,626.0,1.0,11.0,-2.0,-89.0
1863.0,221.0,-1930.0,635.0,6.0,5.0,3.0,-81.0
1864.0,209.0,-1919.0,626.0,2.0,7.0,2.0,-81.0
1865.0,217.0,-1933.0,631.0,4.0,3.0,-4.0,-77.0
1866.0,220.0,-1919.0,614.0,2.0,1.0,-1.0,-75.0
1867.0,219.0,-1920.0,632.0,-1.0,-1.0,-9.0,-72.0
1868.0,225.0,-1917.0,644.0,3.0,3.0,-4.0,-78.0
1869.0,226.0,-1912.0,626.0,2.0,6.0,-1.0,-84.0
1870.0,237.0,-1927.0,624.0,1.0,-2.0,-3.0,-93.0
1871.0,225.0,-1926.0,630.0,-5.0,1.0,-2.0,-90.0
1872.0,229.0,-1930.0,629.0,-3.0,8.0,-1.0,-81.0
1873.0,230.0,-1941.0,621.0,0.0,6.0,2.0,-80.0
1874.0,218.0,-1922.0,643.0,-5.0,8.0,1.0,-85.0
1875.0,224.0,-1926.0,627.0,-1.0,2.0,0.0,-93.0
1876.0,226.0,-1926.0,631.0,2.0,4.0,0.0,-86.0
1877.0,224.0,-1922.0,629.0,8.0,0.0,3.0,-68.0
1878.0,218.0,-1936.0,642.0,4.0,6.0,6.0,-57.0
1879.0,217.0,-1928.0,640.0,10.0,2.0,3.0,-63.0
1880.0,223.0,-1926.0,633.0,7.0,5.0,1.0,-77.0
1881.0,230.0,-1923.0,626.0,8.0,6.0,-1.0,-82.0
1882.0,226.0,-1925.0,638.0,8.0,-2.0,0.0,-64.0
1883.0,219.0,-1923.0,635.0,6.0,-1.0,2.0,-48.0
1884.0,208.0,-1914.0,636.0,11.0,-3.0,1.0,-37.0
1885.0,222.0,-1928.0,625.0,4.0,-2.0,0.0,-39.0
1886.0,227.0,-1915.0,632.0,4.0,1.0,-3.0,-41.0
1887.0,223.0,-1921.0,624.0,4.0,0.0,2.0,-34.0
1888.0,229.0,-1919.0,623.0,-3.0,-4.0,5.0,-28.0
1889.0,230.0,-1914.0,629.0,-4.0,-8.0,3.0,-24.0
1890.0,239.0,-1911.0,639.0,-2.0,-11.0,2.0,-14.0
1891.0,215.0,-1915.0,644.0,1.0,-13.0,2.0,6.0
1892.0,228.0,-1922.0,648.0,0.0,-9.0,-2.0,28.0
1893.0,225.0,-1929.0,646.0,-6.0,-11.0,-6.0,38.0
1894.0,212.0,-1915.0,640.0,-1.0,-12.0,-2.0,28.0
1895.0,217.0,-1916.0,632.0,-3.0,-11.0,4.0,15.0
1896.0,212.0,-1926.0,647.0,-2.0,-11.0,-3.0,8.0
1897.0,216.0,-1922.0,640.0,8.0,-11.0,-1.0,14.0
1898.0,211.0,-1936.0,625.0,8.0,-3.0,2.0,28.0
1899.0,229.0,-1940.0,623.0,11.0,-6.0,0.0,27.0
1900.0,218.0,-1925.0,631.0,13.0,-3.0,3.0,15.0
1901.0,225.0,-1921.0,616.0,10.0,-6.0,1.0,10.0
1902.0,220.0,-1912.0,620.0,11.0,-1.0,1.0,19.0
1903.0,229.0,-1913.0,609.0,13.0,-8.0,2.0,33.0
1904.0,230.0,-1921.0,589.0,4.0,-4.0,-2.0,46.0
1905.0,241.0,-1914.0,600.0,13.0,-1.0,0.0,54.0
1906.0,230.0,-1904.0,604.0,8.0,6.0,-1.0,60.0
1907.0,227.0,-1923.0,621.0,3.0,5.0,-1.0,59.0
1908.0,233.0,-1910.0,629.0,3.0,12.0,-1.0,50.0
1909.0,234.0,-1906.0,640.0,-7.0,9.0,-4.0,50.0
1910.0,226.0,-1906.0,642.0,-15.0,1.0,-3.0,71.0
1911.0,237.0,-1909.0,662.0,-6.0,0.0,0.0,128.0
1912.0,219.0,-1904.0,657.0,-14.0,-2.0,-2.0,203.0
1913.0,227.0,-1931.0,668.0,-9.0,-3.0,0.0,266.0
1914.0,212.0,-1928.0,668.0,-14.0,-8.0,-4.0,287.0
1915.0,210.0,-1933.0,677.0,-9.0,2.0,0.0,260.0
1916.0,217.0,-1931.0,677.0,-3.0,-3.0,-1.0,216.0
1917.0,213.0,-1937.0,653.0,8.0,-3.0,2.0,186.0
1918.0,235.0,-1961.0,626.0,17.0,-3.0,8.0,170.0
1919.0,245.0,-1969.0,572.0,34.0,-16.0,7.0,152.0
1920.0,249.0,-1949.0,566.0,38.0,-10.0,5.0,117.0
1921.0,244.0,-1943.0,570.0,45.0,1.0,1.0,70.0
1922.0,244.0,-1956.0,541.0,64.0,13.0,-2.0,26.0
1923.0,237.0,-1943.0,518.0,63.0,8.0,-1.0,-1.0
1924.0,218.0,-1905.0,545.0,56.0,1.0,-10.0,-22.0
1925.0,210.0,-1866.0,674.0,9.0,5.0,-12.0,-48.0
1926.0,186.0,-1876.0,742.0,-30.0,6.0,-10.0,-74.0
1927.0,195.0,-1880.0,743.0,-50.0,10.0,-2.0,-81.0
1928.0,201.0,-1896.0,727.0,-49.0,15.0,-2.0,-73.0
1929.0,204.0,-1917.0,711.0,-47.0,30.0,-4.0,-71.0
1930.0,204.0,-1938.0,680.0,-24.0,49.0,-3.0,-92.0
1931.0,212.0,-1956.0,628.0,-1.0,48.0,2.0,-129.0
1932.0,224.0,-1935.0,627.0,3.0,32.0,7.0,-152.0
1933.0,225.0,-1934.0,633.0,4.0,25.0,1.0,-145.0
1934.0,232.0,-1926.0,617.0,7.0,21.0,2.0,-117.0
1935.0,241.0,-1925.0,576.0,7.0,29.0,3.0,-103.0
1936.0,247.0,-1905.0,573.0,5.0,39.0,3.0,-149.0
1937.0,239.0,-1892.0,550.0,2.0,43.0,2.0,-294.0
1938.0,225.0,-1888.0,565.0,-8.0,52.0,3.0,-540.0
1939.0,229.0,-1886.0,579.0,-14.0,58.0,3.0,-845.0
1940.0,213.0,-1896.0,579.0,-15.0,50.0,-2.0,-1107.0
1941.0,219.0,-1901.0,621.0,-32.0,50.0,7.0,-1073.0
1942.0,229.0,-1895.0,616.0,-30.0,40.0,4.0,-287.0
1943.0,224.0,-1926.0,634.0,-35.0,42.0,6.0,1394.0
1944.0,226.0,-1921.0,629.0,-36.0,37.0,3.0,3515.0
1945.0,221.0,-1935.0,647.0,-25.0,27.0,5.0,5208.0
1946.0,232.0,-1939.0,624.0,-25.0,23.0,0.0,5742.0
1947.0,231.0,-1950.0,644.0,-22.0,24.0,2.0,5115.0
1948.0,225.0,-1925.0,646.0,-29.0,13.0,3.0,3904.0
1949.0,236.0,-1920.0,650.0,-19.0,13.0,2.0,2719.0
1950.0,237.0,-1930.0,659.0,-21.0,8.0,1.0,1829.0
1951.0,225.0,-1939.0,677.0,-23.0,9.0,-3.0,1133.0
1952.0,233.0,-1941.0,655.0,-18.0,5.0,2.0,487.0
1953.0,223.0,-1951.0,632.0,-14.0,3.0,5.0,-46.0
1954.0,221.0,-1943.0,639.0,-10.0,-1.0,5.0,-426.0
1955.0,232.0,-1950.0,644.0,-5.0,1.0,0.0,-687.0
1956.0,232.0,-1937.0,631.0,1.0,-8.0,2.0,-836.0
1957.0,214.0,-1955.0,632.0,6.0,-7.0,3.0,-913.0
1958.0,221.0,-1961.0,629.0,8.0,-5.0,1.0,-940.0
1959.0,229.0,-1949.0,623.0,11.0,-12.0,-2.0,-949.0
1960.0,229.0,-1955.0,617.0,15.0,-4.0,3.0,-966.0
1961.0,218.0,-1936.0,613.0,13.0,-1.0,2.0,-975.0
1962.0,217.0,-1945.0,603.0,7.0,-2.0,-9.0,-983.0
1963.0,229.0,-1946.0,625.0,7.0,2.0,-4.0,-981.0
1964.0,227.0,-1934.0,613.0,11.0,3.0,-1.0,-975.0
1965.0,231.0,-1929.0,602.0,10.0,1.0,-6.0,-958.0
1966.0,216.0,-1928.0,633.0,7.0,11.0,-1.0,-944.0
1967.0,227.0,-1923.0,618.0,6.0,17.0,-4.0,-931.0
1968.0,229.0,-1920.0,621.0,0.0,12.0,4.0,-923.0
1969.0,227.0,-1905.0,623.0,4.0,16.0,-1.0,-915.0
1970.0,228.0,-1924.0,627.0,0.0,20.0,3.0,-915.0
1971.0,223.0,-1918.0,627.0,-2.0,21.0,0.0,-918.0
1972.0,222.0,-1921.0,634.0,-3.0,17.0,3.0,-922.0
1973.0,237.0,-1924.0,624.0,-7.0,18.0,1.0,-913.0
1974.0,234.0,-1920.0,623.0,-3.0,14.0,5.0,-890.0
1975.0,221.0,-1926.0,623.0,0.0,13.0,3.0,-874.0
1976.0,217.0,-1923.0,619.0,7.0,14.0,7.0,-872.0
1977.0,216.0,-1917.0,625.0,0.0,15.0,4.0,-891.0
1978.0,227.0,-1926.0,624.0,4.0,17.0,3.0,-915.0
1979.0,225.0,-1923.0,620.0,8.0,14.0,-3.0,-929.0
1980.0,236.0,-1930.0,622.0,2.0,17.0,0.0,-940.0
1981.0,221.0,-1923.0,606.0,-4.0,15.0,2.0,-959.0
1982.0,228.0,-1930.0,640.0,3.0,16.0,2.0,-983.0
1983.0,228.0,-1936.0,637.0,-3.0,9.0,6.0,-1004.0
1984.0,232.0,-1922.0,644.0,2.0,13.0,1.0,-1022.0
1985.0,220.0,-1928.0,626.0,7.0,8.0,2.0,-1046.0
1986.0,221.0,-1949.0,634.0,4.0,6.0,7.0,-1086.0
1987.0,229.0,-1926.0,627.0,2.0,-3.0,4.0,-1139.0
1988.0,215.0,-1934.0,637.0,-3.0,3.0,3.0,-1179.0
1989.0,220.0,-1948.0,622.0,-3.0,5.0,6.0,-1192.0
1990.0,226.0,-1941.0,625.0,1.0,6.0,2.0,-1190.0
1991.0,216.0,-1937.0,637.0,-2.0,8.0,0.0,-1181.0
1992.0,200.0,-1935.0,648.0,1.0,11.0,0.0,-1173.0
1993.0,222.0,-1972.0,623.0,16.0,17.0,7.0,-1154.0
1994.0,226.0,-1950.0,625.0,13.0,12.0,4.0,-1108.0
1995.0,236.0,-1928.0,632.0,10.0,-2.0,2.0,-1043.0
1996.0,242.0,-1943.0,633.0,3.0,-9.0,8.0,-973.0
1997.0,238.0,-1953.0,626.0,14.0,-15.0,9.0,-902.0
1998.0,233.0,-1968.0,605.0,32.0,-11.0,6.0,-816.0
1999.0,222.0,-1952.0,595.0,40.0,-3.0,1.0,-707.0
2000.0,219.0,-1923.0,577.0,33.0,3.0,-1.0,-581.0
2001.0,225.0,-1920.0,598.0,23.0,4.0,1.0,-467.0
2002.0,220.0,-1908.0,586.0,8.0,8.0,-4.0,-388.0
2003.0,221.0,-1909.0,616.0,-8.0,7.0,0.0,-338.0
2004.0,213.0,-1907.0,631.0,-3.0,7.0,-2.0,-299.0
2005.0,222.0,-1919.0,628.0,-8.0,3.0,4.0,-261.0
2006.0,221.0,-1932.0,624.0,-5.0,9.0,0.0,-228.0
2007.0,228.0,-1917.0,624.0,-8.0,7.0,0.0,-203.0
2008.0,221.0,-1934.0,626.0,5.0,5.0,2.0,-183.0
2009.0,230.0,-1926.0,619.0,10.0,1.0,-2.0,-161.0
2010.0,229.0,-1921.0,616.0,3.0,4.0,1.0,-142.0
2011.0,210.0,-1925.0,609.0,7.0,14.0,0.0,-132.0
2012.0,218.0,-1921.0,608.0,7.0,14.0,-1.0,-135.0
2013.0,228.0,-1927.0,619.0,5.0,18.0,-1.0,-146.0
2014.0,225.0,-1920.0,623.0,5.0,11.0,3.0,-150.0
2015.0,227.0,-1926.0,619.0,2.0,18.0,1.0,-144.0
2016.0,221.0,-1920.0,623.0,10.0,15.0,-4.0,-137.0
2017.0,218.0,-1926.0,632.0,6.0,19.0,4.0,-141.0
2018.0,223.0,-1920.0,634.0,8.0,17.0,6.0,-155.0
2019.0,218.0,-1916.0,624.0,-1.0,9.0,-4.0,-165.0
2020.0,213.0,-1924.0,641.0,5.0,12.0,7.0,-164.0
2021.0,230.0,-1918.0,625.0,-1.0,6.0,-6.0,-163.0
2022.0,214.0,-1918.0,641.0,2.0,3.0,3.0,-176.0
2023.0,212.0,-1921.0,625.0,5.0,7.0,-2.0,-193.0
2024.0,227.0,-1931.0,630.0,10.0,2.0,-3.0,-199.0
2025.0,226.0,-1936.0,641.0,8.0,7.0,0.0,-192.0
2026.0,229.0,-1920.0,618.0,5.0,12.0,1.0,-177.0
2027.0,216.0,-1928.0,630.0,11.0,8.0,-2.0,-179.0
2028.0,208.0,-1932.0,625.0,6.0,13.0,-5.0,-198.0
2029.0,218.0,-1921.0,631.0,6.0,6.0,-7.0,-218.0
2030.0,215.0,-1920.0,623.0,-5.0,10.0,0.0,-225.0
2031.0,222.0,-1923.0,643.0,2.0,7.0,0.0,-212.0
2032.0,221.0,-1915.0,636.0,5.0,8.0,0.0,-205.0
2033.0,220.0,-1925.0,625.0,1.0,13.0,1.0,-200.0
2034.0,215.0,-1933.0,629.0,4.0,11.0,-1.0,-202.0
2035.0,230.0,-1912.0,616.0,2.0,11.0,2.0,-201.0
2036.0,225.0,-1918.0,633.0,-2.0,15.0,1.0,-197.0
2037.0,222.0,-1928.0,631.0,7.0,12.0,-1.0,-198.0
2038.0,232.0,-1925.0,629.0,13.0,12.0,5.0,-204.0
2039.0,224.0,-1933.0,639.0,15.0,15.0,1.0,-207.0
2040.0,224.0,-1927.0,640.0,16.0,13.0,3.0,-199.0
2041.0,220.0,-1916.0,642.0,10.0,7.0,1.0,-186.0
2042.0,222.0,-1918.0,650.0,7.0,3.0,3.0,-178.0
2043.0,218.0,-1922.0,632.0,12.0,6.0,2.0,-180.0
2044.0,222.0,-1921.0,630.0,11.0,3.0,-2.0,-183.0
2045.0,233.0,-1916.0,645.0,5.0,7.0,-4.0,-176.0
2046.0,227.0,-1920.0,660.0,-1.0,9.0,-5.0,-157.0
2047.0,215.0,-1916.0,638.0,7.0,11.0,-4.0,-138.0
2048.0,230.0,-1923.0,636.0,-1.0,14.0,-3.0,-134.0
2049.0,220.0,-1920.0,636.0,-8.0,7.0,-3.0,-131.0
2050.0,230.0,-1909.0,654.0,-5.0,8.0,1.0,-121.0
2051.0,226.0,-1914.0,642.0,-11.0,12.0,-2.0,-104.0
2052.0,208.0,-1923.0,655.0,0.0,6.0,1.0,-98.0
2053.0,222.0,-1911.0,649.0,-10.0,5.0,4.0,-98.0
2054.0,212.0,-1912.0,657.0,-12.0,5.0,0.0,-100.0
2055.0,213.0,-1917.0,640.0,-9.0,9.0,5.0,-90.0
2056.0,227.0,-1917.0,665.0,-11.0,4.0,0.0,-68.0
2057.0,214.0,-1924.0,656.0,-12.0,9.0,0.0,-48.0
2058.0,222.0,-1921.0,659.0,-7.0,7.0,3.0,-43.0
2059.0,214.0,-1921.0,645.0,-6.0,8.0,2.0,-50.0
2060.0,219.0,-1931.0,658.0,-3.0,5.0,2.0,-62.0
2061.0,220.0,-1929.0,641.0,0.0,5.0,1.0,-62.0
2062.0,220.0,-1931.0,633.0,-3.0,9.0,2.0,-62.0
2063.0,217.0,-1926.0,632.0,5.0,9.0,-3.0,-74.0
2064.0,223.0,-1916.0,633.0,9.0,11.0,2.0,-89.0
2065.0,212.0,-1926.0,615.0,9.0,10.0,-3.0,-100.0
2066.0,209.0,-1912.0,619.0,3.0,11.0,-2.0,-94.0
2067.0,228.0,-1909.0,627.0,-2.0,13.0,-3.0,-74.0
2068.0,228.0,-1924.0,601.0,-6.0,11.0,-5.0,-57.0
2069.0,225.0,-1911.0,609.0,-3.0,12.0,-5.0,-46.0
2070.0,247.0,-1916.0,621.0,-9.0,15.0,-4.0,-43.0
2071.0,228.0,-1902.0,637.0,-7.0,15.0,-5.0,-48.0
2072.0,224.0,-1906.0,617.0,-8.0,14.0,-8.0,-59.0
2073.0,209.0,-1912.0,645.0,-7.0,23.0,-4.0,-71.0
2074.0,226.0,-1911.0,653.0,-19.0,17.0,-4.0,-62.0
2075.0,218.0,-1902.0,641.0,-15.0,9.0,1.0,-19.0
2076.0,222.0,-1913.0,651.0,-20.0,6.0,-5.0,58.0
2077.0,215.0,-1912.0,689.0,-25.0,8.0,-3.0,134.0
2078.0,212.0,-1915.0,680.0,-20.0,-3.0,-2.0,179.0
2079.0,213.0,-1931.0,691.0,-19.0,0.0,-1.0,176.0
2080.0,210.0,-1939.0,688.0,-13.0,3.0,-5.0,145.0
2081.0,210.0,-1951.0,670.0,-3.0,4.0,0.0,113.0
2082.0,216.0,-1946.0,634.0,6.0,8.0,1.0,89.0
2083.0,221.0,-1966.0,581.0,26.0,-5.0,5.0,64.0
2084.0,243.0,-1960.0,567.0,41.0,-8.0,7.0,27.0
2085.0,227.0,-1939.0,575.0,34.0,9.0,-2.0,-18.0
2086.0,218.0,-1959.0,551.0,56.0,15.0,-4.0,-52.0
2087.0,230.0,-1940.0,517.0,62.0,16.0,-7.0,-71.0
2088.0,226.0,-1922.0,518.0,55.0,18.0,-9.0,-89.0
2089.0,206.0,-1868.0,586.0,27.0,18.0,-11.0,-115.0
2090.0,185.0,-1854.0,718.0,-20.0,18.0,-13.0,-143.0
2091.0,189.0,-1879.0,730.0,-52.0,10.0,-13.0,-161.0
2092.0,210.0,-1907.0,719.0,-60.0,18.0,-5.0,-162.0
2093.0,203.0,-1913.0,723.0,-53.0,28.0,-6.0,-160.0
2094.0,199.0,-1935.0,698.0,-38.0,38.0,-2.0,-170.0
2095.0,215.0,-1944.0,647.0,-18.0,40.0,0.0,-188.0
2096.0,215.0,-1945.0,644.0,1.0,33.0,3.0,-203.0
2097.0,219.0,-1938.0,643.0,6.0,16.0,4.0,-201.0
2098.0,224.0,-1936.0,611.0,10.0,9.0,6.0,-182.0
2099.0,230.0,-1929.0,576.0,8.0,12.0,3.0,-167.0
2100.0,226.0,-1929.0,554.0,5.0,27.0,0.0,-188.0
2101.0,228.0,-1921.0,559.0,3.0,36.0,-4.0,-285.0
2102.0,222.0,-1900.0,553.0,-2.0,48.0,-6.0,-487.0
2103.0,204.0,-1892.0,566.0,-15.0,52.0,1.0,-772.0
2104.0,216.0,-1900.0,571.0,-21.0,53.0,5.0,-1059.0
2105.0,210.0,-1897.0,582.0,-27.0,53.0,1.0,-1157.0
2106.0,215.0,-1884.0,596.0,-35.0,45.0,2.0,-653.0
2107.0,216.0,-1900.0,611.0,-39.0,40.0,-3.0,766.0
2108.0,219.0,-1922.0,614.0,-41.0,39.0,4.0,2835.0
2109.0,213.0,-1916.0,623.0,-42.0,32.0,5.0,4783.0
2110.0,223.0,-1922.0,634.0,-49.0,28.0,-2.0,5762.0
2111.0,235.0,-1932.0,625.0,-38.0,25.0,6.0,5501.0
2112.0,230.0,-1932.0,631.0,-33.0,22.0,6.0,4420.0
2113.0,227.0,-1945.0,645.0,-35.0,14.0,1.0,3156.0
2114.0,226.0,-1948.0,633.0,-25.0,8.0,4.0,2124.0
2115.0,226.0,-1940.0,641.0,-18.0,7.0,4.0,1351.0
2116.0,226.0,-1940.0,656.0,-23.0,1.0,7.0,680.0
2117.0,224.0,-1960.0,658.0,-17.0,-1.0,6.0,107.0
2118.0,222.0,-1941.0,642.0,-9.0,-2.0,4.0,-312.0
2119.0,224.0,-1956.0,659.0,-4.0,-3.0,5.0,-614.0
2120.0,226.0,-1958.0,640.0,6.0,-8.0,9.0,-808.0
2121.0,218.0,-1962.0,623.0,6.0,-14.0,1.0,-903.0
2122.0,214.0,-1963.0,617.0,6.0,-7.0,5.0,-925.0
2123.0,216.0,-1953.0,613.0,13.0,-14.0,7.0,-923.0
2124.0,222.0,-1956.0,604.0,9.0,-10.0,2.0,-937.0
2125.0,222.0,-1952.0,615.0,11.0,-18.0,0.0,-959.0
2126.0,229.0,-1945.0,601.0,16.0,-19.0,4.0,-981.0
2127.0,228.0,-1938.0,604.0,16.0,-14.0,-2.0,-986.0
2128.0,224.0,-1937.0,615.0,27.0,-8.0,-3.0,-986.0
2129.0,219.0,-1936.0,605.0,16.0,-7.0,-8.0,-981.0
2130.0,213.0,-1922.0,596.0,8.0,-5.0,-2.0,-980.0
2131.0,218.0,-1925.0,595.0,10.0,-7.0,-4.0,-976.0
2132.0,222.0,-1922.0,606.0,7.0,4.0,1.0,-963.0
2133.0,218.0,-1926.0,620.0,8.0,3.0,0.0,-944.0
2134.0,223.0,-1918.0,604.0,3.0,9.0,2.0,-929.0
2135.0,218.0,-1921.0,626.0,2.0,9.0,5.0,-924.0
2136.0,206.0,-1926.0,607.0,-5.0,9.0,1.0,-922.0
2137.0,230.0,-1923.0,605.0,-4.0,13.0,0.0,-909.0
2138.0,225.0,-1926.0,615.0,1.0,8.0,2.0,-891.0
2139.0,224.0,-1909.0,610.0,-2.0,10.0,1.0,-880.0
2140.0,224.0,-1922.0,634.0,-1.0,11.0,7.0,-880.0
2141.0,218.0,-1927.0,602.0,3.0,12.0,6.0,-893.0
2142.0,214.0,-1931.0,605.0,0.0,5.0,3.0,-900.0
2143.0,215.0,-1924.0,626.0,2.0,9.0,5.0,-900.0
2144.0,230.0,-1921.0,624.0,8.0,5.0,2.0,-907.0
2145.0,220.0,-1915.0,633.0,-1.0,8.0,1.0,-937.0
2146.0,220.0,-1915.0,617.0,-2.0,5.0,-1.0,-979.0
2147.0,228.0,-1914.0,616.0,-11.0,8.0,2.0,-1023.0
2148.0,226.0,-1935.0,612.0,1.0,2.0,0.0,-1053.0
2149.0,220.0,-1928.0,629.0,-4.0,8.0,2.0,-1078.0
2150.0,227.0,-1922.0,603.0,1.0,3.0,1.0,-1113.0
2151.0,227.0,-1929.0,613.0,-4.0,2.0,-3.0,-1155.0
2152.0,238.0,-1914.0,629.0,-3.0,0.0,3.0,-1184.0
2153.0,217.0,-1928.0,625.0,-4.0,5.0,-1.0,-1199.0
2154.0,217.0,-1919.0,625.0,3.0,7.0,8.0,-1197.0
2155.0,221.0,-1914.0,631.0,-7.0,7.0,-3.0,-1194.0
2156.0,213.0,-1940.0,644.0,-10.0,15.0,-1.0,-1193.0
2157.0,226.0,-1945.0,643.0,3.0,13.0,3.0,-1183.0
2158.0,222.0,-1958.0,631.0,-1.0,18.0,2.0,-1145.0
2159.0,230.0,-1935.0,645.0,-6.0,4.0,4.0,-1086.0
2160.0,237.0,-1950.0,659.0,3.0,-4.0,5.0,-1014.0
2161.0,232.0,-1941.0,641.0,3.0,-5.0,3.0,-932.0
2162.0,236.0,-1956.0,606.0,7.0,-4.0,3.0,-842.0
2163.0,223.0,-1947.0,592.0,17.0,-2.0,3.0,-731.0
2164.0,222.0,-1937.0,604.0,13.0,-7.0,1.0,-604.0
2165.0,212.0,-1931.0,608.0,8.0,3.0,-2.0,-485.0
2166.0,214.0,-1909.0,607.0,-4.0,3.0,-4.0,-391.0
2167.0,213.0,-1921.0,608.0,-9.0,5.0,-4.0,-325.0
2168.0,224.0,-1914.0,616.0,-15.0,10.0,1.0,-277.0
2169.0,223.0,-1922.0,626.0,-20.0,12.0,0.0,-231.0
2170.0,222.0,-1918.0,642.0,-22.0,16.0,-3.0,-195.0
2171.0,223.0,-1933.0,645.0,-17.0,7.0,-6.0,-166.0
2172.0,221.0,-1938.0,643.0,-10.0,8.0,2.0,-146.0
2173.0,231.0,-1931.0,643.0,1.0,5.0,4.0,-131.0
2174.0,229.0,-1931.0,626.0,-2.0,10.0,6.0,-119.0
2175.0,233.0,-1928.0,621.0,7.0,13.0,1.0,-109.0
2176.0,210.0,-1929.0,629.0,0.0,13.0,2.0,-106.0
2177.0,223.0,-1930.0,627.0,1.0,6.0,2.0,-105.0
2178.0,222.0,-1929.0,619.0,4.0,15.0,1.0,-98.0
2179.0,227.0,-1912.0,643.0,8.0,16.0,4.0,-99.0
2180.0,217.0,-1923.0,628.0,13.0,16.0,-1.0,-105.0
2181.0,221.0,-1925.0,628.0,3.0,19.0,0.0,-121.0
2182.0,218.0,-1931.0,625.0,7.0,23.0,3.0,-130.0
2183.0,222.0,-1922.0,631.0,6.0,13.0,4.0,-124.0
2184.0,228.0,-1924.0,632.0,7.0,16.0,1.0,-109.0
2185.0,230.0,-1914.0,646.0,2.0,16.0,2.0,-100.0
2186.0,208.0,-1914.0,639.0,1.0,17.0,0.0,-104.0
2187.0,225.0,-1925.0,636.0,5.0,12.0,4.0,-123.0
2188.0,231.0,-1927.0,648.0,0.0,7.0,-1.0,-131.0
2189.0,223.0,-1923.0,641.0,15.0,8.0,-1.0,-129.0
2190.0,219.0,-1927.0,624.0,13.0,4.0,0.0,-127.0
2191.0,216.0,-1931.0,628.0,6.0,11.0,1.0,-133.0
2192.0,206.0,-1922.0,634.0,13.0,7.0,-5.0,-149.0
2193.0,219.0,-1928.0,621.0,8.0,9.0,3.0,-159.0
2194.0,213.0,-1916.0,637.0,9.0,9.0,2.0,-157.0
2195.0,229.0,-1933.0,627.0,3.0,6.0,-3.0,-153.0
2196.0,218.0,-1928.0,627.0,5.0,12.0,-1.0,-151.0
2197.0,222.0,-1931.0,629.0,-1.0,11.0,-1.0,-156.0
2198.0,228.0,-1922.0,618.0,3.0,13.0,-3.0,-160.0
2199.0,222.0,-1930.0,617.0,7.0,1.0,-1.0,-154.0
2200.0,228.0,-1932.0,621.0,8.0,9.0,-3.0,-151.0
2201.0,225.0,-1920.0,619.0,9.0,7.0,6.0,-156.0
2202.0,226.0,-1922.0,627.0,14.0,4.0,-1.0,-167.0
2203.0,220.0,-1926.0,620.0,6.0,5.0,1.0,-170.0
2204.0,219.0,-1930.0,614.0,8.0,4.0,3.0,-155.0
2205.0,223.0,-1924.0,612.0,8.0,3.0,0.0,-134.0
2206.0,218.0,-1936.0,634.0,10.0,3.0,-4.0,-119.0
2207.0,208.0,-1929.0,621.0,9.0,2.0,1.0,-122.0
2208.0,222.0,-1926.0,617.0,7.0,-1.0,-5.0,-126.0
2209.0,221.0,-1928.0,628.0,12.0,1.0,0.0,-119.0
2210.0,223.0,-1915.0,625.0,5.0,5.0,4.0,-100.0
2211.0,226.0,-1918.0,626.0,6.0,4.0,0.0,-85.0
2212.0,225.0,-1923.0,631.0,10.0,1.0,1.0,-78.0
2213.0,214.0,-1916.0,627.0,0.0,3.0,-4.0,-74.0
2214.0,210.0,-1923.0,625.0,2.0,4.0,1.0,-64.0
2215.0,206.0,-1922.0,636.0,3.0,6.0,0.0,-50.0
2216.0,217.0,-1925.0,639.0,5.0,4.0,-1.0,-39.0
2217.0,225.0,-1924.0,616.0,0.0,4.0,1.0,-35.0
2218.0,225.0,-1930.0,628.0,4.0,3.0,1.0,-36.0
2219.0,228.0,-1928.0,624.0,-3.0,0.0,4.0,-32.0
2220.0,224.0,-1933.0,632.0,1.0,3.0,3.0,-24.0
2221.0,210.0,-1922.0,610.0,-1.0,3.0,-2.0,-14.0
2222.0,220.0,-1927.0,618.0,-7.0,4.0,-3.0,-11.0
2223.0,219.0,-1925.0,621.0,-1.0,4.0,-1.0,-15.0
2224.0,226.0,-1931.0,628.0,-5.0,0.0,4.0,-10.0
2225.0,215.0,-1925.0,622.0,-9.0,-8.0,2.0,0.0
2226.0,223.0,-1928.0,614.0,-4.0,-1.0,3.0,12.0
2227.0,222.0,-1925.0,616.0,-3.0,-6.0,0.0,15.0
2228.0,214.0,-1935.0,626.0,-4.0,-2.0,3.0,13.0
2229.0,209.0,-1932.0,630.0,-5.0,-9.0,3.0,16.0
2230.0,220.0,-1931.0,632.0,-3.0,-14.0,4.0,26.0
2231.0,218.0,-1930.0,621.0,1.0,-4.0,-1.0,31.0
2232.0,200.0,-1945.0,613.0,4.0,-9.0,5.0,32.0
2233.0,206.0,-1939.0,621.0,5.0,-2.0,-4.0,27.0
2234.0,218.0,-1939.0,606.0,7.0,-3.0,2.0,27.0
2235.0,217.0,-1922.0,596.0,8.0,1.0,3.0,36.0
2236.0,213.0,-1919.0,611.0,4.0,2.0,8.0,46.0
2237.0,224.0,-1913.0,611.0,-3.0,5.0,3.0,53.0
2238.0,223.0,-1923.0,584.0,-6.0,2.0,2.0,64.0
2239.0,219.0,-1935.0,597.0,-6.0,0.0,-1.0,82.0
2240.0,233.0,-1925.0,603.0,-7.0,2.0,3.0,100.0
2241.0,238.0,-1936.0,616.0,-14.0,12.0,2.0,99.0
2242.0,225.0,-1933.0,620.0,-5.0,-2.0,-4.0,78.0
2243.0,227.0,-1939.0,625.0,-7.0,3.0,-3.0,68.0
2244.0,226.0,-1942.0,626.0,-5.0,0.0,-2.0,87.0
2245.0,229.0,-1926.0,638.0,-7.0,6.0,-3.0,146.0
2246.0,222.0,-1915.0,650.0,-3.0,-6.0,-3.0,220.0
2247.0,222.0,-1931.0,643.0,-2.0,-12.0,-5.0,273.0
2248.0,219.0,-1928.0,661.0,-9.0,-7.0,-3.0,293.0
2249.0,219.0,-1927.0,684.0,-9.0,-8.0,-1.0,274.0
2250.0,213.0,-1943.0,686.0,2.0,-4.0,-3.0,235.0
2251.0,216.0,-1951.0,650.0,14.0,-4.0,-3.0,202.0
2252.0,225.0,-1960.0,616.0,22.0,-7.0,1.0,180.0
2253.0,228.0,-1957.0,567.0,34.0,-22.0,5.0,180.0
2254.0,231.0,-1936.0,560.0,41.0,-17.0,0.0,198.0
2255.0,229.0,-1946.0,568.0,46.0,3.0,-1.0,231.0
2256.0,227.0,-1960.0,530.0,63.0,9.0,-5.0,266.0
2257.0,222.0,-1947.0,515.0,67.0,14.0,-7.0,284.0
2258.0,225.0,-1907.0,502.0,51.0,13.0,-9.0,278.0
2259.0,208.0,-1876.0,622.0,21.0,8.0,-10.0,266.0
2260.0,196.0,-1871.0,714.0,-22.0,3.0,-6.0,255.0
2261.0,197.0,-1886.0,745.0,-40.0,5.0,-2.0,259.0
2262.0,214.0,-1909.0,716.0,-42.0,6.0,-3.0,266.0
2263.0,214.0,-1913.0,702.0,-35.0,17.0,-7.0,262.0
2264.0,215.0,-1937.0,693.0,-29.0,27.0,-4.0,252.0
2265.0,222.0,-1951.0,644.0,-9.0,27.0,2.0,244.0
2266.0,217.0,-1960.0,632.0,6.0,14.0,1.0,240.0
2267.0,225.0,-1965.0,639.0,26.0,3.0,6.0,244.0
2268.0,232.0,-1940.0,608.0,29.0,3.0,1.0,244.0
2269.0,218.0,-1931.0,607.0,27.0,6.0,2.0,230.0
2270.0,228.0,-1924.0,568.0,27.0,19.0,-8.0,178.0
2271.0,222.0,-1913.0,547.0,23.0,30.0,-1.0,43.0
2272.0,236.0,-1903.0,575.0,18.0,39.0,2.0,-214.0
2273.0,206.0,-1882.0,565.0,2.0,51.0,-5.0,-546.0
2274.0,210.0,-1910.0,587.0,-1.0,43.0,-5.0,-825.0
2275.0,222.0,-1890.0,612.0,-16.0,46.0,-6.0,-786.0
2276.0,225.0,-1900.0,605.0,-22.0,40.0,-1.0,11.0
2277.0,219.0,-1925.0,631.0,-21.0,39.0,0.0,1711.0
2278.0,222.0,-1927.0,631.0,-18.0,34.0,-1.0,3862.0
2279.0,226.0,-1926.0,643.0,-16.0,30.0,-4.0,5613.0
2280.0,214.0,-1935.0,649.0,-13.0,20.0,-2.0,6247.0
2281.0,227.0,-1921.0,656.0,-16.0,18.0,1.0,5700.0
2282.0,217.0,-1930.0,642.0,-19.0,5.0,-4.0,4495.0
2283.0,233.0,-1942.0,663.0,-15.0,7.0,-4.0,3222.0
2284.0,234.0,-1927.0,654.0,-14.0,9.0,-2.0,2207.0
2285.0,227.0,-1953.0,657.0,-10.0,4.0,2.0,1428.0
2286.0,227.0,-1939.0,653.0,1.0,3.0,-2.0,777.0
2287.0,229.0,-1945.0,646.0,2.0,-4.0,1.0,269.0
2288.0,217.0,-1939.0,653.0,12.0,-6.0,-3.0,-96.0
2289.0,222.0,-1953.0,642.0,13.0,-6.0,2.0,-357.0
2290.0,232.0,-1946.0,633.0,11.0,-10.0,1.0,-518.0
2291.0,226.0,-1952.0,634.0,11.0,-8.0,0.0,-595.0
2292.0,222.0,-1944.0,627.0,18.0,-3.0,4.0,-617.0
2293.0,219.0,-1939.0,612.0,14.0,-6.0,-2.0,-637.0
2294.0,219.0,-1943.0,610.0,21.0,-10.0,0.0,-665.0
2295.0,220.0,-1950.0,604.0,16.0,-9.0,-3.0,-682.0
2296.0,227.0,-1945.0,598.0,20.0,-2.0,-3.0,-686.0
2297.0,225.0,-1929.0,618.0,22.0,-1.0,-1.0,-679.0
2298.0,229.0,-1931.0,608.0,19.0,7.0,-9.0,-686.0
2299.0,226.0,-1935.0,603.0,13.0,1.0,-1.0,-708.0
2300.0,223.0,-1921.0,625.0,17.0,6.0,-4.0,-738.0
2301.0,217.0,-1920.0,604.0,12.0,10.0,-3.0,-755.0
2302.0,218.0,-1909.0,622.0,10.0,13.0,-2.0,-757.0
2303.0,217.0,-1929.0,630.0,7.0,19.0,-1.0,-752.0
2304.0,223.0,-1928.0,632.0,4.0,13.0,1.0,-757.0
2305.0,217.0,-1929.0,635.0,4.0,11.0,-5.0,-767.0
2306.0,222.0,-1917.0,621.0,2.0,15.0,1.0,-786.0
2307.0,222.0,-1924.0,628.0,7.0,13.0,-2.0,-796.0
2308.0,209.0,-1930.0,609.0,-2.0,7.0,1.0,-802.0
2309.0,223.0,-1929.0,611.0,5.0,15.0,-3.0,-806.0
2310.0,207.0,-1920.0,628.0,0.0,13.0,1.0,-813.0
2311.0,215.0,-1901.0,625.0,2.0,12.0,-4.0,-825.0
2312.0,214.0,-1922.0,635.0,2.0,11.0,2.0,-835.0
2313.0,217.0,-1912.0,619.0,-2.0,12.0,0.0,-845.0
2314.0,206.0,-1920.0,618.0,5.0,11.0,-2.0,-870.0
2315.0,213.0,-1908.0,630.0,1.0,9.0,-1.0,-901.0
2316.0,196.0,-1921.0,606.0,2.0,6.0,0.0,-933.0
2317.0,216.0,-1923.0,626.0,-2.0,3.0,0.0,-967.0
2318.0,208.0,-1922.0,615.0,2.0,4.0,0.0,-1003.0
2319.0,214.0,-1932.0,619.0,3.0,6.0,3.0,-1045.0
2320.0,224.0,-1922.0,622.0,5.0,2.0,-1.0,-1082.0
2321.0,228.0,-1925.0,616.0,4.0,-1.0,4.0,-1112.0
2322.0,230.0,-1926.0,605.0,1.0,-3.0,-2.0,-1135.0
2323.0,223.0,-1930.0,612.0,-5.0,-4.0,2.0,-1149.0
2324.0,211.0,-1930.0,623.0,3.0,-6.0,3.0,-1159.0
2325.0,223.0,-1933.0,633.0,-6.0,-4.0,0.0,-1158.0
2326.0,207.0,-1920.0,642.0,-4.0,2.0,-2.0,-1143.0
2327.0,215.0,-1951.0,641.0,1.0,6.0,-1.0,-1110.0
2328.0,223.0,-1949.0,635.0,14.0,1.0,4.0,-1069.0
2329.0,213.0,-1951.0,634.0,14.0,-1.0,6.0,-1028.0
2330.0,219.0,-1957.0,645.0,12.0,-13.0,3.0,-969.0
2331.0,224.0,-1955.0,623.0,25.0,-15.0,3.0,-881.0
2332.0,228.0,-1959.0,615.0,23.0,-15.0,0.0,-762.0
2333.0,225.0,-1940.0,596.0,26.0,-9.0,0.0,-627.0
2334.0,209.0,-1935.0,622.0,23.0,2.0,0.0,-507.0
2335.0,227.0,-1934.0,611.0,14.0,1.0,-7.0,-403.0
2336.0,228.0,-1915.0,621.0,12.0,-5.0,-4.0,-319.0
2337.0,225.0,-1923.0,612.0,5.0,-9.0,1.0,-241.0
2338.0,223.0,-1916.0,635.0,5.0,-13.0,-1.0,-171.0
2339.0,218.0,-1901.0,623.0,2.0,-9.0,-4.0,-120.0
2340.0,217.0,-1922.0,647.0,0.0,-8.0,-4.0,-91.0
2341.0,219.0,-1938.0,637.0,8.0,-9.0,-5.0,-70.0
2342.0,216.0,-1937.0,629.0,17.0,-11.0,-3.0,-41.0
2343.0,231.0,-1925.0,625.0,15.0,-11.0,-3.0,4.0
2344.0,228.0,-1919.0,630.0,23.0,-11.0,-2.0,43.0
2345.0,226.0,-1920.0,621.0,14.0,-1.0,-2.0,66.0
2346.0,235.0,-1923.0,619.0,14.0,-2.0,-2.0,64.0
2347.0,229.0,-1930.0,625.0,17.0,4.0,-4.0,57.0
2348.0,237.0,-1916.0,640.0,20.0,1.0,-4.0,57.0
2349.0,219.0,-1912.0,624.0,21.0,5.0,-3.0,65.0
2350.0,225.0,-1899.0,628.0,16.0,7.0,-1.0,76.0
2351.0,220.0,-1910.0,636.0,21.0,5.0,0.0,84.0
2352.0,230.0,-1914.0,632.0,19.0,4.0,-9.0,90.0
2353.0,222.0,-1927.0,622.0,23.0,1.0,-8.0,99.0
2354.0,229.0,-1923.0,643.0,16.0,-4.0,-1.0,102.0
2355.0,222.0,-1918.0,625.0,21.0,-5.0,-4.0,94.0
2356.0,227.0,-1935.0,632.0,15.0,1.0,-2.0,78.0
2357.0,220.0,-1929.0,644.0,21.0,-3.0,-5.0,69.0
2358.0,222.0,-1932.0,636.0,23.0,-3.0,-3.0,69.0
2359.0,219.0,-1923.0,654.0,26.0,2.0,-5.0,86.0
2360.0,215.0,-1933.0,634.0,20.0,-4.0,-2.0,97.0
2361.0,219.0,-1926.0,638.0,19.0,-2.0,2.0,102.0
2362.0,220.0,-1930.0,631.0,19.0,0.0,-4.0,97.0
2363.0,208.0,-1915.0,636.0,19.0,-6.0,-6.0,95.0
2364.0,217.0,-1929.0,626.0,9.0,-2.0,-4.0,89.0
2365.0,225.0,-1928.0,642.0,2.0,5.0,-6.0,83.0
2366.0,219.0,-1927.0,637.0,7.0,3.0,-3.0,83.0
2367.0,228.0,-1931.0,641.0,6.0,7.0,-1.0,90.0
2368.0,212.0,-1917.0,642.0,7.0,5.0,-5.0,100.0
2369.0,221.0,-1937.0,632.0,10.0,1.0,-1.0,106.0
2370.0,211.0,-1943.0,631.0,5.0,-1.0,-10.0,107.0
2371.0,224.0,-1946.0,619.0,7.0,-2.0,-1.0,109.0
2372.0,226.0,-1933.0,637.0,4.0,-7.0,-3.0,123.0
2373.0,211.0,-1942.0,651.0,14.0,-4.0,-3.0,157.0
2374.0,218.0,-1933.0,640.0,17.0,-8.0,-2.0,201.0
2375.0,231.0,-1938.0,643.0,15.0,-5.0,-1.0,241.0
2376.0,223.0,-1943.0,650.0,27.0,-6.0,-4.0,271.0
2377.0,228.0,-1942.0,638.0,20.0,-8.0,-4.0,292.0
2378.0,222.0,-1931.0,627.0,25.0,-9.0,-8.0,320.0
2379.0,228.0,-1935.0,629.0,27.0,-9.0,-5.0,355.0
2380.0,218.0,-1924.0,642.0,27.0,-2.0,-4.0,383.0
2381.0,219.0,-1919.0,640.0,23.0,-10.0,-8.0,400.0
2382.0,220.0,-1931.0,622.0,16.0,-12.0,-2.0,414.0
2383.0,217.0,-1923.0,642.0,21.0,-4.0,-7.0,438.0
2384.0,219.0,-1925.0,629.0,16.0,-7.0,-8.0,465.0
2385.0,222.0,-1917.0,635.0,15.0,-10.0,-5.0,485.0
2386.0,221.0,-1923.0,622.0,13.0,-8.0,-8.0,493.0
2387.0,213.0,-1917.0,632.0,19.0,-4.0,-6.0,502.0
2388.0,213.0,-1933.0,638.0,16.0,-5.0,-9.0,532.0
2389.0,213.0,-1920.0,641.0,15.0,-7.0,-10.0,577.0
2390.0,217.0,-1928.0,644.0,13.0,-9.0,-4.0,621.0
2391.0,224.0,-1932.0,632.0,13.0,-11.0,-6.0,655.0
2392.0,210.0,-1930.0,632.0,11.0,-5.0,-9.0,684.0
2393.0,227.0,-1920.0,621.0,14.0,-7.0,-3.0,732.0
2394.0,227.0,-1930.0,630.0,14.0,-7.0,-5.0,792.0
2395.0,231.0,-1927.0,625.0,13.0,-6.0,-5.0,845.0
2396.0,220.0,-1922.0,637.0,11.0,-8.0,0.0,869.0
2397.0,220.0,-1918.0,639.0,16.0,-3.0,-6.0,873.0
2398.0,219.0,-1938.0,621.0,16.0,-5.0,-6.0,878.0
2399.0,218.0,-1919.0,644.0,13.0,-9.0,-8.0,899.0
2400.0,228.0,-1909.0,632.0,13.0,-11.0,-9.0,930.0
2401.0,216.0,-1919.0,635.0,6.0,-12.0,-4.0,945.0
2402.0,227.0,-1921.0,637.0,11.0,-14.0,-4.0,950.0
2403.0,230.0,-1917.0,624.0,5.0,-11.0,-2.0,956.0
2404.0,219.0,-1926.0,638.0,10.0,-15.0,-4.0,975.0
2405.0,226.0,-1932.0,658.0,7.0,-13.0,-4.0,1016.0
2406.0,230.0,-1916.0,644.0,6.0,-15.0,3.0,1053.0
2407.0,224.0,-1931.0,639.0,8.0,-15.0,-3.0,1088.0
2408.0,222.0,-1924.0,626.0,14.0,-19.0,-4.0,1132.0
2409.0,225.0,-1923.0,619.0,13.0,-14.0,-6.0,1188.0
2410.0,210.0,-1922.0,614.0,13.0,-14.0,1.0,1217.0
2411.0,217.0,-1934.0,623.0,18.0,-13.0,-6.0,1223.0
2412.0,227.0,-1921.0,613.0,9.0,-14.0,-1.0,1267.0
2413.0,226.0,-1919.0,609.0,14.0,-10.0,-3.0,1453.0
2414.0,214.0,-1916.0,639.0,14.0,-16.0,-5.0,1826.0
2415.0,222.0,-1919.0,622.0,12.0,-20.0,-5.0,2323.0
2416.0,217.0,-1923.0,614.0,2.0,-13.0,-5.0,2807.0
2417.0,220.0,-1914.0,627.0,12.0,-15.0,-9.0,3186.0
2418.0,220.0,-1928.0,616.0,14.0,-18.0,-8.0,3458.0
2419.0,235.0,-1927.0,647.0,13.0,-14.0,-6.0,3671.0
2420.0,232.0,-1919.0,624.0,21.0,-14.0,-5.0,3854.0
2421.0,241.0,-1926.0,626.0,17.0,-12.0,-7.0,4011.0
2422.0,233.0,-1929.0,630.0,17.0,-9.0,-7.0,4165.0
2423.0,241.0,-1932.0,644.0,13.0,-9.0,-8.0,4348.0
2424.0,215.0,-1913.0,646.0,10.0,-20.0,-10.0,4576.0
2425.0,232.0,-1912.0,652.0,8.0,-21.0,-11.0,4822.0
2426.0,223.0,-1925.0,654.0,12.0,-22.0,-6.0,5028.0
2427.0,231.0,-1930.0,677.0,5.0,-19.0,-10.0,5158.0
2428.0,218.0,-1930.0,686.0,6.0,-22.0,-6.0,5214.0
2429.0,224.0,-1952.0,687.0,19.0,-21.0,-8.0,5217.0
2430.0,226.0,-1936.0,668.0,30.0,-19.0,-4.0,5201.0
2431.0,235.0,-1956.0,631.0,46.0,-26.0,-1.0,5170.0
2432.0,239.0,-1969.0,580.0,51.0,-38.0,-2.0,5132.0
2433.0,249.0,-1932.0,577.0,59.0,-29.0,-4.0,5083.0
2434.0,238.0,-1966.0,575.0,71.0,-20.0,-7.0,5030.0
2435.0,228.0,-1965.0,553.0,88.0,-8.0,-5.0,4982.0
2436.0,239.0,-1944.0,516.0,98.0,-10.0,-11.0,4923.0
2437.0,237.0,-1912.0,561.0,82.0,-8.0,-16.0,4855.0
2438.0,216.0,-1884.0,639.0,38.0,-3.0,-14.0,4784.0
2439.0,191.0,-1865.0,726.0,-1.0,-9.0,-20.0,4708.0
2440.0,216.0,-1881.0,752.0,-14.0,-8.0,-11.0,4636.0
2441.0,226.0,-1901.0,714.0,-9.0,-6.0,-8.0,4559.0
2442.0,207.0,-1915.0,675.0,-4.0,19.0,-6.0,4467.0
2443.0,209.0,-1912.0,644.0,2.0,40.0,-10.0,4362.0
2444.0,219.0,-1920.0,627.0,-1.0,42.0,-7.0,4260.0
2445.0,227.0,-1924.0,648.0,7.0,28.0,-1.0,4176.0
2446.0,234.0,-1915.0,635.0,17.0,25.0,-4.0,4111.0
2447.0,236.0,-1925.0,619.0,18.0,19.0,1.0,4039.0
2448.0,228.0,-1926.0,578.0,15.0,30.0,-2.0,3933.0
2449.0,259.0,-1899.0,563.0,8.0,31.0,0.0,3765.0
2450.0,230.0,-1883.0,558.0,7.0,37.0,1.0,3502.0
2451.0,235.0,-1885.0,563.0,1.0,39.0,-2.0,3149.0
2452.0,227.0,-1897.0,598.0,-7.0,38.0,-3.0,2760.0
2453.0,224.0,-1889.0,609.0,-17.0,36.0,-1.0,2452.0
2454.0,215.0,-1914.0,624.0,-17.0,30.0,-1.0,2578.0
2455.0,223.0,-1906.0,649.0,-10.0,19.0,-1.0,3566.0
2456.0,228.0,-1926.0,661.0,-9.0,11.0,-6.0,5373.0
2457.0,233.0,-1937.0,651.0,4.0,9.0,-3.0,7367.0
2458.0,240.0,-1942.0,659.0,5.0,6.0,-1.0,8646.0
2459.0,222.0,-1942.0,665.0,9.0,3.0,4.0,8702.0
2460.0,241.0,-1943.0,662.0,10.0,-2.0,0.0,7775.0
2461.0,241.0,-1930.0,664.0,16.0,-3.0,-6.0,6495.0
2462.0,231.0,-1947.0,676.0,16.0,-9.0,-2.0,5352.0
2463.0,250.0,-1951.0,656.0,23.0,-8.0,1.0,4476.0
2464.0,236.0,-1945.0,678.0,23.0,-13.0,-3.0,3717.0
2465.0,232.0,-1956.0,659.0,25.0,-16.0,-3.0,3020.0
2466.0,222.0,-1961.0,669.0,28.0,-10.0,0.0,2468.0
2467.0,228.0,-1942.0,658.0,33.0,-14.0,-2.0,2039.0
2468.0,234.0,-1948.0,637.0,43.0,-22.0,-3.0,1713.0
2469.0,225.0,-1951.0,643.0,49.0,-19.0,-4.0,1483.0
2470.0,243.0,-1958.0,653.0,48.0,-22.0,-5.0,1338.0
